time,rollrate,pitchrate,yawrate,accx,accy,accz
0,-0.00640869140625,-0.0042724609375,-0.01495361328125,-0.2691650390625,0.21697998046875,9.69635009765625
0.100034475326538,-0.00640869140625,-0.005340576171875,-0.016021728515625,-0.27191162109375,0.2197265625,9.70458984375
0.199938535690308,-0.00640869140625,-0.0042724609375,-0.01495361328125,-0.27923583984375,0.223388671875,9.693603515625
0.29999828338623,-0.005340576171875,-0.00213623046875,-0.01495361328125,-0.2874755859375,0.22705078125,9.69818115234375
0.400470733642578,-0.00640869140625,-0.0042724609375,-0.016021728515625,-0.27099609375,0.22430419921875,9.693603515625
0.499998807907104,-0.00640869140625,-0.003204345703125,-0.01495361328125,-0.2728271484375,0.22430419921875,9.69085693359375
0.600341796875,-0.00640869140625,-0.00640869140625,-0.01708984375,-0.274658203125,0.2178955078125,9.6881103515625
0.699908971786499,-0.005340576171875,-0.0042724609375,-0.016021728515625,-0.27923583984375,0.2288818359375,9.69635009765625
0.799830913543701,-0.00640869140625,-0.003204345703125,-0.016021728515625,-0.27099609375,0.2178955078125,9.7100830078125
0.900170564651489,-0.005340576171875,-0.0042724609375,-0.01495361328125,-0.27374267578125,0.22430419921875,9.68994140625
1.00060439109802,-0.005340576171875,-0.0042724609375,-0.01495361328125,-0.27923583984375,0.22247314453125,9.708251953125
1.10007357597351,-0.00640869140625,-0.003204345703125,-0.016021728515625,-0.27008056640625,0.2325439453125,9.71832275390625
1.20016026496887,-0.007476806640625,-0.003204345703125,-0.016021728515625,-0.27099609375,0.22705078125,9.70184326171875
1.30013728141785,-0.00640869140625,-0.0042724609375,-0.016021728515625,-0.26824951171875,0.2288818359375,9.70367431640625
1.40017294883728,-0.005340576171875,-0.005340576171875,-0.01495361328125,-0.27740478515625,0.2215576171875,9.6881103515625
1.49996829032898,-0.0042724609375,-0.003204345703125,-0.016021728515625,-0.28106689453125,0.216064453125,9.70367431640625
1.59990620613098,-0.00640869140625,-0.0042724609375,-0.016021728515625,-0.27191162109375,0.216064453125,9.7027587890625
1.69970941543579,-0.00640869140625,-0.0042724609375,-0.016021728515625,-0.2655029296875,0.2325439453125,9.697265625
1.79986524581909,-0.005340576171875,-0.003204345703125,-0.016021728515625,-0.2691650390625,0.23162841796875,9.7027587890625
1.90025925636292,-0.00640869140625,-0.003204345703125,-0.01495361328125,-0.2728271484375,0.22247314453125,9.68994140625
2.00008893013,-0.005340576171875,-0.0042724609375,-0.016021728515625,-0.263671875,0.2252197265625,9.70733642578125
2.09981918334961,-0.007476806640625,-0.003204345703125,-0.01495361328125,-0.2801513671875,0.22796630859375,9.693603515625
2.20021390914917,-0.005340576171875,-0.003204345703125,-0.016021728515625,-0.274658203125,0.2197265625,9.6990966796875
2.29998707771301,-0.00640869140625,-0.00213623046875,-0.016021728515625,-0.27008056640625,0.2252197265625,9.69818115234375
2.40022039413452,-0.007476806640625,-0.0042724609375,-0.016021728515625,-0.274658203125,0.22247314453125,9.7100830078125
2.49986410140991,-0.00640869140625,-0.00213623046875,-0.016021728515625,-0.274658203125,0.2252197265625,9.68719482421875
2.59986710548401,-0.005340576171875,-0.0042724609375,-0.016021728515625,-0.2783203125,0.2252197265625,9.69451904296875
2.69986271858215,-0.005340576171875,-0.003204345703125,-0.016021728515625,-0.28472900390625,0.2252197265625,9.6990966796875
2.79998707771301,-0.0042724609375,-0.0042724609375,-0.016021728515625,-0.27191162109375,0.22705078125,9.69451904296875
2.90001773834229,-0.00640869140625,-0.0042724609375,-0.016021728515625,-0.2801513671875,0.21331787109375,9.7064208984375
2.99998617172241,-0.005340576171875,-0.003204345703125,-0.016021728515625,-0.274658203125,0.22064208984375,9.70733642578125
3.10001468658447,-0.00640869140625,-0.00213623046875,-0.016021728515625,-0.281982421875,0.2252197265625,9.69818115234375
3.19994807243347,-0.005340576171875,-0.005340576171875,-0.016021728515625,-0.27740478515625,0.23162841796875,9.70367431640625
3.30007696151733,-0.005340576171875,-0.00213623046875,-0.01495361328125,-0.2764892578125,0.223388671875,9.697265625
3.40001606941223,-0.005340576171875,-0.0042724609375,-0.016021728515625,-0.28106689453125,0.22247314453125,9.70184326171875
3.50006031990051,-0.005340576171875,-0.0042724609375,-0.01495361328125,-0.26824951171875,0.22796630859375,9.686279296875
3.60018277168274,-0.00640869140625,-0.003204345703125,-0.01495361328125,-0.27923583984375,0.2252197265625,9.68719482421875
3.699791431427,-0.005340576171875,-0.003204345703125,-0.01495361328125,-0.27008056640625,0.22796630859375,9.70550537109375
3.80015993118286,-0.00640869140625,-0.0042724609375,-0.01495361328125,-0.2764892578125,0.2215576171875,9.70458984375
3.90015172958374,-0.005340576171875,-0.0042724609375,-0.01495361328125,-0.27923583984375,0.223388671875,9.71466064453125
4.00007009506226,-0.007476806640625,-0.0042724609375,-0.01495361328125,-0.2801513671875,0.230712890625,9.7100830078125
4.09993767738342,-0.005340576171875,-0.0042724609375,-0.016021728515625,-0.2728271484375,0.223388671875,9.70550537109375
4.19987320899963,-0.005340576171875,-0.00213623046875,-0.016021728515625,-0.2728271484375,0.22705078125,9.693603515625
4.29995822906494,-0.00640869140625,-0.003204345703125,-0.016021728515625,-0.274658203125,0.22430419921875,9.700927734375
4.40015697479248,-0.00640869140625,-0.0042724609375,-0.016021728515625,-0.2764892578125,0.234375,9.69635009765625
4.50013327598572,-0.005340576171875,-0.0042724609375,-0.01495361328125,-0.28472900390625,0.2197265625,9.686279296875
4.59995150566101,-0.005340576171875,-0.003204345703125,-0.016021728515625,-0.2801513671875,0.223388671875,9.6990966796875
4.69997334480286,-0.005340576171875,-0.0042724609375,-0.01495361328125,-0.2783203125,0.21881103515625,9.70458984375
4.79992437362671,-0.005340576171875,-0.00213623046875,-0.016021728515625,-0.26641845703125,0.22705078125,9.708251953125
4.90004301071167,-0.005340576171875,-0.0042724609375,-0.01495361328125,-0.2728271484375,0.223388671875,9.708251953125
5.00015020370483,-0.005340576171875,-0.003204345703125,-0.013885498046875,-0.2783203125,0.2215576171875,9.7027587890625
5.09994101524353,-0.0042724609375,-0.0042724609375,-0.01495361328125,-0.28656005859375,0.21881103515625,9.69268798828125
5.20002412796021,-0.007476806640625,-0.0042724609375,-0.01495361328125,-0.28289794921875,0.22613525390625,9.68719482421875
5.30002236366272,-0.00640869140625,-0.003204345703125,-0.01495361328125,-0.281982421875,0.2178955078125,9.70367431640625
5.40003156661987,-0.00640869140625,-0.003204345703125,-0.01495361328125,-0.274658203125,0.2252197265625,9.7027587890625
5.50020718574524,-0.005340576171875,-0.0042724609375,-0.016021728515625,-0.274658203125,0.223388671875,9.70367431640625
5.60002136230469,-0.005340576171875,-0.003204345703125,-0.01495361328125,-0.27374267578125,0.2197265625,9.70367431640625
5.69994759559631,-0.00640869140625,-0.005340576171875,-0.016021728515625,-0.281982421875,0.22705078125,9.71099853515625
5.80001091957092,-0.005340576171875,-0.003204345703125,-0.016021728515625,-0.2728271484375,0.22430419921875,9.70458984375
5.90024852752686,-0.00640869140625,-0.00213623046875,-0.01495361328125,-0.27008056640625,0.230712890625,9.70733642578125
5.99991059303284,-0.005340576171875,-0.003204345703125,-0.01495361328125,-0.2728271484375,0.22064208984375,9.7064208984375
6.09990882873535,-0.007476806640625,-0.003204345703125,-0.016021728515625,-0.281982421875,0.2252197265625,9.7119140625
6.20022439956665,-0.00640869140625,-0.00213623046875,-0.01495361328125,-0.2783203125,0.22796630859375,9.693603515625
6.30020403862,-0.00640869140625,-0.0042724609375,-0.01495361328125,-0.2728271484375,0.2288818359375,9.697265625
6.40025854110718,-0.005340576171875,-0.0042724609375,-0.01495361328125,-0.2783203125,0.2252197265625,9.6954345703125
6.49985933303833,-0.005340576171875,-0.003204345703125,-0.01495361328125,-0.2801513671875,0.2178955078125,9.68353271484375
6.60007119178772,-0.005340576171875,-0.003204345703125,-0.016021728515625,-0.28106689453125,0.22796630859375,9.686279296875
6.70029544830322,-0.005340576171875,-0.0042724609375,-0.01495361328125,-0.27191162109375,0.223388671875,9.7137451171875
6.80009293556213,-0.005340576171875,-0.005340576171875,-0.016021728515625,-0.2801513671875,0.22064208984375,9.71649169921875
6.90006184577942,-0.005340576171875,-0.0042724609375,-0.01495361328125,-0.27557373046875,0.22613525390625,9.71282958984375
7.00003695487976,-0.00640869140625,-0.0042724609375,-0.01495361328125,-0.2801513671875,0.22247314453125,9.70458984375
7.09981513023376,-0.005340576171875,-0.003204345703125,-0.016021728515625,-0.27923583984375,0.223388671875,9.69451904296875
7.19994425773621,-0.00640869140625,-0.00213623046875,-0.016021728515625,-0.274658203125,0.23345947265625,9.70733642578125
7.29995155334473,-0.00640869140625,-0.0042724609375,-0.016021728515625,-0.2783203125,0.22430419921875,9.69635009765625
7.40017008781433,-0.005340576171875,-0.005340576171875,-0.01495361328125,-0.28289794921875,0.2252197265625,9.693603515625
7.50024557113647,-0.005340576171875,-0.0042724609375,-0.016021728515625,-0.2764892578125,0.2215576171875,9.69818115234375
7.6001136302948,-0.00640869140625,-0.003204345703125,-0.01708984375,-0.2801513671875,0.22247314453125,9.69451904296875
7.70080137252808,-0.005340576171875,-0.0042724609375,-0.016021728515625,-0.2764892578125,0.2288818359375,9.68994140625
7.80005764961243,-0.00640869140625,-0.003204345703125,-0.01495361328125,-0.2783203125,0.22613525390625,9.71466064453125
7.90032625198364,-0.00640869140625,-0.0042724609375,-0.01495361328125,-0.27008056640625,0.223388671875,9.71832275390625
8.00006675720215,-0.00640869140625,-0.003204345703125,-0.016021728515625,-0.27008056640625,0.22430419921875,9.71466064453125
8.09991407394409,-0.00640869140625,-0.0042724609375,-0.01495361328125,-0.27374267578125,0.22613525390625,9.70001220703125
8.20024347305298,-0.005340576171875,-0.0042724609375,-0.016021728515625,-0.2838134765625,0.216064453125,9.70367431640625
8.29985690116882,-0.005340576171875,-0.003204345703125,-0.016021728515625,-0.27923583984375,0.223388671875,9.693603515625
8.40016674995422,-0.00640869140625,-0.003204345703125,-0.016021728515625,-0.2728271484375,0.2215576171875,9.69451904296875
8.49990820884705,-0.00640869140625,-0.0042724609375,-0.016021728515625,-0.27557373046875,0.22430419921875,9.693603515625
8.60009503364563,-0.0042724609375,-0.0042724609375,-0.01495361328125,-0.274658203125,0.230712890625,9.6990966796875
8.69979858398438,-0.005340576171875,-0.003204345703125,-0.016021728515625,-0.2801513671875,0.21881103515625,9.7064208984375
8.79980897903442,-0.0042724609375,-0.0042724609375,-0.016021728515625,-0.28472900390625,0.216064453125,9.70367431640625
8.90054178237915,-0.00640869140625,-0.0042724609375,-0.01495361328125,-0.28656005859375,0.2288818359375,9.700927734375
9.00014019012451,-0.00640869140625,-0.003204345703125,-0.01495361328125,-0.28289794921875,0.21697998046875,9.69635009765625
9.1003954410553,-0.005340576171875,-0.00213623046875,-0.016021728515625,-0.2801513671875,0.2362060546875,9.6917724609375
9.19991493225098,-0.005340576171875,-0.003204345703125,-0.01495361328125,-0.27923583984375,0.21881103515625,9.70184326171875
9.29999995231628,-0.005340576171875,-0.003204345703125,-0.01495361328125,-0.27557373046875,0.21697998046875,9.6771240234375
9.39993762969971,-0.005340576171875,-0.00213623046875,-0.01495361328125,-0.2783203125,0.2252197265625,9.686279296875
9.50016641616821,-0.00640869140625,-0.003204345703125,-0.016021728515625,-0.26824951171875,0.2252197265625,9.68536376953125
9.6005756855011,-0.00640869140625,-0.003204345703125,-0.016021728515625,-0.27557373046875,0.22247314453125,9.71282958984375
9.70020508766174,-0.0042724609375,-0.00640869140625,-0.01495361328125,-0.28564453125,0.2252197265625,9.7174072265625
9.80004715919495,-0.00640869140625,-0.0042724609375,-0.01708984375,-0.2764892578125,0.22705078125,9.715576171875
9.90045690536499,-0.00640869140625,-0.003204345703125,-0.016021728515625,-0.26641845703125,0.22979736328125,9.72198486328125
10.0002861022949,-0.005340576171875,-0.0042724609375,-0.016021728515625,-0.2801513671875,0.2215576171875,9.697265625
10.1001579761505,-0.007476806640625,-0.003204345703125,-0.01495361328125,-0.274658203125,0.21514892578125,9.70184326171875
10.2001674175262,-0.005340576171875,-0.0042724609375,-0.01495361328125,-0.28106689453125,0.2197265625,9.68902587890625
10.3001747131348,-0.005340576171875,-0.0042724609375,-0.01495361328125,-0.2764892578125,0.21881103515625,9.7027587890625
10.4002361297607,-0.007476806640625,-0.0042724609375,-0.01495361328125,-0.2728271484375,0.23162841796875,9.7064208984375
10.5003371238708,-0.005340576171875,-0.003204345703125,-0.01495361328125,-0.27374267578125,0.223388671875,9.7100830078125
10.5998010635376,-0.005340576171875,-0.003204345703125,-0.01495361328125,-0.27099609375,0.23162841796875,9.69635009765625
10.6999983787537,-0.005340576171875,-0.003204345703125,-0.01495361328125,-0.281982421875,0.223388671875,9.715576171875
10.8001279830933,-0.005340576171875,-0.00213623046875,-0.01495361328125,-0.2764892578125,0.22796630859375,9.7100830078125
10.9001543521881,-0.005340576171875,-0.0042724609375,-0.016021728515625,-0.2783203125,0.22613525390625,9.69635009765625
11.0000710487366,-0.005340576171875,-0.005340576171875,-0.01495361328125,-0.274658203125,0.21881103515625,9.72015380859375
11.0999796390533,-0.00640869140625,-0.0042724609375,-0.016021728515625,-0.28289794921875,0.23162841796875,9.69818115234375
11.2001354694366,-0.00640869140625,-0.0042724609375,-0.016021728515625,-0.27191162109375,0.230712890625,9.67987060546875
11.3002896308899,-0.00640869140625,-0.00213623046875,-0.016021728515625,-0.27923583984375,0.22613525390625,9.70367431640625
11.4004456996918,-0.00640869140625,-0.0042724609375,-0.016021728515625,-0.27557373046875,0.22796630859375,9.69451904296875
11.5000038146973,-0.005340576171875,-0.00213623046875,-0.01495361328125,-0.27923583984375,0.2178955078125,9.70550537109375
11.6004076004028,-0.00640869140625,-0.0042724609375,-0.016021728515625,-0.2801513671875,0.22705078125,9.708251953125
11.7001435756683,-0.005340576171875,-0.0042724609375,-0.016021728515625,-0.27740478515625,0.22979736328125,9.693603515625
11.8002305030823,-0.005340576171875,-0.0042724609375,-0.016021728515625,-0.27557373046875,0.2252197265625,9.69451904296875
11.9000527858734,-0.00640869140625,-0.0042724609375,-0.01708984375,-0.27557373046875,0.223388671875,9.70916748046875
12.0000925064087,-0.005340576171875,-0.003204345703125,-0.01495361328125,-0.27099609375,0.230712890625,9.71649169921875
12.100702047348,-0.00640869140625,-0.005340576171875,-0.016021728515625,-0.28289794921875,0.2252197265625,9.68902587890625
12.1999955177307,-0.005340576171875,-0.0042724609375,-0.01495361328125,-0.27740478515625,0.22064208984375,9.6990966796875
12.3005166053772,-0.005340576171875,-0.003204345703125,-0.016021728515625,-0.2838134765625,0.223388671875,9.69085693359375
12.3999259471893,-0.00640869140625,-0.003204345703125,-0.016021728515625,-0.2764892578125,0.2252197265625,9.6954345703125
12.5011148452759,-0.005340576171875,-0.0042724609375,-0.016021728515625,-0.26824951171875,0.230712890625,9.70367431640625
12.6001160144806,-0.005340576171875,-0.003204345703125,-0.016021728515625,-0.2801513671875,0.22064208984375,9.700927734375
12.700088262558,-0.005340576171875,-0.0042724609375,-0.016021728515625,-0.2801513671875,0.22979736328125,9.70916748046875
12.800196647644,-0.005340576171875,-0.003204345703125,-0.016021728515625,-0.2728271484375,0.21881103515625,9.71649169921875
12.9007992744446,-0.00640869140625,-0.003204345703125,-0.01495361328125,-0.27557373046875,0.22705078125,9.6990966796875
13.000344991684,-0.00640869140625,-0.003204345703125,-0.01495361328125,-0.2764892578125,0.2215576171875,9.72564697265625
13.1004264354706,-0.00640869140625,-0.00213623046875,-0.01495361328125,-0.2801513671875,0.22247314453125,9.70367431640625
13.2000102996826,-0.005340576171875,-0.0042724609375,-0.01495361328125,-0.27374267578125,0.22705078125,9.71923828125
13.3002076148987,-0.0042724609375,-0.003204345703125,-0.01495361328125,-0.28289794921875,0.2178955078125,9.7100830078125
13.4000477790833,-0.00640869140625,-0.003204345703125,-0.01495361328125,-0.27740478515625,0.2178955078125,9.678955078125
13.5004322528839,-0.00640869140625,-0.003204345703125,-0.016021728515625,-0.27008056640625,0.23345947265625,9.7027587890625
13.5999851226807,-0.005340576171875,-0.00213623046875,-0.016021728515625,-0.2801513671875,0.22247314453125,9.70184326171875
13.7000706195831,-0.005340576171875,-0.005340576171875,-0.01495361328125,-0.28289794921875,0.2142333984375,9.7027587890625
13.7999646663666,-0.00640869140625,-0.003204345703125,-0.013885498046875,-0.274658203125,0.223388671875,9.7027587890625
13.9009320735931,-0.005340576171875,-0.001068115234375,-0.01495361328125,-0.27557373046875,0.2215576171875,9.71282958984375
14.0002846717834,-0.005340576171875,-0.005340576171875,-0.01708984375,-0.281982421875,0.22247314453125,9.69635009765625
14.1002068519592,-0.005340576171875,-0.003204345703125,-0.016021728515625,-0.27923583984375,0.2288818359375,9.7027587890625
14.2008066177368,-0.00640869140625,-0.0042724609375,-0.016021728515625,-0.2764892578125,0.2288818359375,9.68536376953125
14.3000285625458,-0.005340576171875,-0.0042724609375,-0.016021728515625,-0.28289794921875,0.22430419921875,9.70550537109375
14.3999669551849,-0.00640869140625,-0.0042724609375,-0.01495361328125,-0.28472900390625,0.21697998046875,9.69635009765625
14.5001997947693,-0.005340576171875,-0.0042724609375,-0.013885498046875,-0.27923583984375,0.22247314453125,9.7100830078125
14.6003074645996,-0.005340576171875,-0.005340576171875,-0.016021728515625,-0.2764892578125,0.22796630859375,9.69635009765625
14.6999070644379,-0.00640869140625,-0.003204345703125,-0.016021728515625,-0.2801513671875,0.22430419921875,9.71099853515625
14.7999844551086,-0.00640869140625,-0.003204345703125,-0.016021728515625,-0.27923583984375,0.2215576171875,9.6881103515625
14.9001669883728,-0.00640869140625,-0.0042724609375,-0.016021728515625,-0.27374267578125,0.230712890625,9.71832275390625
15.0003855228424,-0.00640869140625,-0.0042724609375,-0.016021728515625,-0.27008056640625,0.2197265625,9.7064208984375
15.1004111766815,-0.005340576171875,-0.0042724609375,-0.016021728515625,-0.281982421875,0.22613525390625,9.6771240234375
15.2005257606506,-0.005340576171875,-0.00213623046875,-0.01495361328125,-0.2691650390625,0.2197265625,9.68902587890625
15.3002479076385,-0.007476806640625,-0.003204345703125,-0.01495361328125,-0.27923583984375,0.2288818359375,9.6990966796875
15.4003052711487,-0.00640869140625,-0.005340576171875,-0.01495361328125,-0.27923583984375,0.2197265625,9.70458984375
15.5003929138184,-0.0042724609375,-0.0042724609375,-0.016021728515625,-0.2783203125,0.22979736328125,9.72381591796875
15.6000065803528,-0.005340576171875,-0.003204345703125,-0.016021728515625,-0.29022216796875,0.223388671875,9.7265625
15.700089931488,-0.005340576171875,-0.005340576171875,-0.01495361328125,-0.2783203125,0.2197265625,9.7064208984375
15.8002223968506,-0.00640869140625,-0.003204345703125,-0.016021728515625,-0.28564453125,0.223388671875,9.7100830078125
15.9004080295563,-0.0042724609375,-0.003204345703125,-0.016021728515625,-0.26641845703125,0.223388671875,9.68170166015625
16.0001428127289,-0.005340576171875,-0.0042724609375,-0.01495361328125,-0.27740478515625,0.223388671875,9.68170166015625
16.1001477241516,-0.00640869140625,-0.003204345703125,-0.016021728515625,-0.2728271484375,0.22705078125,9.68353271484375
16.2003479003906,-0.00640869140625,-0.003204345703125,-0.016021728515625,-0.2801513671875,0.2142333984375,9.67254638671875
16.2999308109283,-0.005340576171875,-0.0042724609375,-0.01495361328125,-0.28472900390625,0.21881103515625,9.69818115234375
16.4002242088318,-0.00640869140625,-0.003204345703125,-0.01495361328125,-0.2783203125,0.216064453125,9.70367431640625
16.5000023841858,-0.00640869140625,-0.0042724609375,-0.01495361328125,-0.274658203125,0.22705078125,9.70916748046875
16.6005258560181,-0.007476806640625,-0.00213623046875,-0.016021728515625,-0.281982421875,0.22430419921875,9.7137451171875
16.6999409198761,-0.00640869140625,-0.003204345703125,-0.01495361328125,-0.2801513671875,0.22247314453125,9.7064208984375
16.8004870414734,-0.00640869140625,-0.003204345703125,-0.01495361328125,-0.27557373046875,0.2325439453125,9.71099853515625
16.9001438617706,-0.00640869140625,-0.003204345703125,-0.016021728515625,-0.2783203125,0.2252197265625,9.70184326171875
16.9999003410339,-0.005340576171875,-0.0042724609375,-0.01495361328125,-0.2838134765625,0.21514892578125,9.6917724609375
17.0998287200928,-0.005340576171875,-0.0042724609375,-0.01708984375,-0.27374267578125,0.2252197265625,9.71282958984375
17.2002060413361,-0.005340576171875,-0.005340576171875,-0.01495361328125,-0.2874755859375,0.2252197265625,9.70916748046875
17.3013939857483,-0.005340576171875,-0.003204345703125,-0.01708984375,-0.27557373046875,0.216064453125,9.69085693359375
17.4003019332886,-0.005340576171875,-0.005340576171875,-0.01495361328125,-0.29022216796875,0.223388671875,9.7027587890625
17.5001382827759,-0.00640869140625,-0.003204345703125,-0.016021728515625,-0.2764892578125,0.22064208984375,9.7100830078125
17.6001744270325,-0.005340576171875,-0.0042724609375,-0.016021728515625,-0.2838134765625,0.23162841796875,9.69085693359375
17.7003698348999,-0.00640869140625,-0.003204345703125,-0.016021728515625,-0.27557373046875,0.22430419921875,9.69451904296875
17.799825668335,-0.00640869140625,-0.0042724609375,-0.013885498046875,-0.27374267578125,0.2288818359375,9.70184326171875
17.9003524780273,-0.005340576171875,-0.003204345703125,-0.016021728515625,-0.26824951171875,0.22247314453125,9.700927734375
18.000378370285,-0.005340576171875,-0.00213623046875,-0.01495361328125,-0.2801513671875,0.22613525390625,9.69268798828125
18.1003496646881,-0.005340576171875,-0.003204345703125,-0.01708984375,-0.27557373046875,0.2288818359375,9.6881103515625
18.2003357410431,-0.005340576171875,-0.0042724609375,-0.016021728515625,-0.281982421875,0.2252197265625,9.70001220703125
18.3000087738037,-0.0042724609375,-0.0042724609375,-0.01495361328125,-0.27923583984375,0.2215576171875,9.69635009765625
18.3999693393707,-0.00640869140625,-0.0042724609375,-0.01495361328125,-0.2691650390625,0.2178955078125,9.70367431640625
18.5001637935638,-0.005340576171875,-0.003204345703125,-0.016021728515625,-0.27557373046875,0.223388671875,9.7027587890625
18.6003458499908,-0.00640869140625,-0.003204345703125,-0.016021728515625,-0.27099609375,0.22430419921875,9.7064208984375
18.7000939846039,-0.00640869140625,-0.00213623046875,-0.01495361328125,-0.27923583984375,0.230712890625,9.693603515625
18.8004791736603,-0.005340576171875,-0.0042724609375,-0.01495361328125,-0.267333984375,0.2252197265625,9.6954345703125
18.9002246856689,-0.00640869140625,-0.003204345703125,-0.016021728515625,-0.281982421875,0.2288818359375,9.70916748046875
18.9998750686646,-0.005340576171875,-0.005340576171875,-0.01495361328125,-0.2838134765625,0.22064208984375,9.68353271484375
19.0998349189758,-0.0042724609375,-0.003204345703125,-0.01495361328125,-0.27557373046875,0.2215576171875,9.69635009765625
19.2001242637634,-0.00640869140625,-0.003204345703125,-0.016021728515625,-0.281982421875,0.22064208984375,9.69818115234375
19.2999873161316,-0.005340576171875,-0.003204345703125,-0.01495361328125,-0.2728271484375,0.22064208984375,9.68719482421875
19.4002070426941,-0.005340576171875,-0.0042724609375,-0.01495361328125,-0.27099609375,0.22247314453125,9.70458984375
19.500500202179,-0.005340576171875,-0.003204345703125,-0.016021728515625,-0.274658203125,0.2288818359375,9.71099853515625
19.600102186203,-0.005340576171875,-0.0042724609375,-0.01495361328125,-0.27191162109375,0.22064208984375,9.708251953125
19.7004179954529,-0.00640869140625,-0.0042724609375,-0.016021728515625,-0.28106689453125,0.223388671875,9.70184326171875
19.7998535633087,-0.0042724609375,-0.003204345703125,-0.016021728515625,-0.2874755859375,0.22064208984375,9.7119140625
19.8999214172363,-0.005340576171875,-0.003204345703125,-0.01495361328125,-0.27923583984375,0.22430419921875,9.6807861328125
20.0003387928009,-0.0042724609375,-0.003204345703125,-0.01495361328125,-0.28106689453125,0.21514892578125,9.70367431640625
20.1002533435822,-0.005340576171875,-0.003204345703125,-0.016021728515625,-0.2838134765625,0.22796630859375,9.6954345703125
20.200362443924,-0.00640869140625,-0.003204345703125,-0.016021728515625,-0.2801513671875,0.2178955078125,9.69818115234375
20.2998206615448,-0.005340576171875,-0.003204345703125,-0.01495361328125,-0.2801513671875,0.22247314453125,9.70001220703125
20.4004459381104,-0.005340576171875,-0.0042724609375,-0.016021728515625,-0.274658203125,0.21881103515625,9.70733642578125
20.5001792907715,-0.0042724609375,-0.003204345703125,-0.01495361328125,-0.2874755859375,0.21881103515625,9.708251953125
20.6006698608398,-0.0042724609375,-0.0042724609375,-0.016021728515625,-0.27923583984375,0.23162841796875,9.70458984375
20.6998617649078,-0.005340576171875,-0.0042724609375,-0.016021728515625,-0.28656005859375,0.2197265625,9.69085693359375
20.8005557060242,-0.005340576171875,-0.0042724609375,-0.01708984375,-0.27557373046875,0.22613525390625,9.70001220703125
20.9003269672394,-0.0042724609375,-0.0042724609375,-0.016021728515625,-0.27374267578125,0.22247314453125,9.71282958984375
20.999950170517,-0.00640869140625,-0.005340576171875,-0.01495361328125,-0.2801513671875,0.22064208984375,9.693603515625
21.0999479293823,-0.005340576171875,-0.003204345703125,-0.01495361328125,-0.2838134765625,0.22705078125,9.6954345703125
21.2005071640015,-0.003204345703125,-0.0042724609375,-0.01495361328125,-0.274658203125,0.2252197265625,9.72381591796875
21.3002107143402,-0.005340576171875,-0.0042724609375,-0.01495361328125,-0.2801513671875,0.22430419921875,9.7064208984375
21.3999755382538,-0.00640869140625,-0.00213623046875,-0.016021728515625,-0.289306640625,0.2197265625,9.69451904296875
21.4998600482941,-0.005340576171875,-0.00213623046875,-0.016021728515625,-0.27923583984375,0.22430419921875,9.70916748046875
21.6004910469055,-0.005340576171875,-0.0042724609375,-0.01495361328125,-0.2764892578125,0.22705078125,9.700927734375
21.7001895904541,-0.005340576171875,-0.003204345703125,-0.016021728515625,-0.27191162109375,0.223388671875,9.70184326171875
21.8001770973206,-0.00640869140625,-0.003204345703125,-0.01495361328125,-0.274658203125,0.23162841796875,9.6954345703125
21.9001150131226,-0.005340576171875,-0.0042724609375,-0.01495361328125,-0.27740478515625,0.2288818359375,9.70184326171875
22.0000011920929,-0.00640869140625,-0.003204345703125,-0.01495361328125,-0.2874755859375,0.223388671875,9.69451904296875
22.099826335907,-0.00640869140625,-0.0042724609375,-0.01495361328125,-0.2838134765625,0.21514892578125,9.69635009765625
22.2003710269928,-0.005340576171875,-0.003204345703125,-0.01708984375,-0.26824951171875,0.22430419921875,9.70458984375
22.2998204231262,-0.005340576171875,-0.0042724609375,-0.013885498046875,-0.2764892578125,0.21697998046875,9.6990966796875
22.4000515937805,-0.00640869140625,-0.003204345703125,-0.016021728515625,-0.2764892578125,0.22613525390625,9.708251953125
22.4997916221619,-0.00640869140625,-0.0042724609375,-0.016021728515625,-0.27099609375,0.22613525390625,9.708251953125
22.6001598834991,-0.00640869140625,-0.0042724609375,-0.016021728515625,-0.27008056640625,0.22613525390625,9.71282958984375
22.7006039619446,-0.005340576171875,-0.003204345703125,-0.016021728515625,-0.27374267578125,0.21881103515625,9.697265625
22.8002078533173,-0.00640869140625,-0.0042724609375,-0.016021728515625,-0.27923583984375,0.2197265625,9.6844482421875
22.9001863002777,-0.005340576171875,-0.0042724609375,-0.016021728515625,-0.27557373046875,0.22430419921875,9.68719482421875
23.0001215934753,-0.005340576171875,-0.003204345703125,-0.01708984375,-0.27923583984375,0.20782470703125,9.69268798828125
23.1000466346741,-0.00640869140625,-0.003204345703125,-0.016021728515625,-0.2838134765625,0.22705078125,9.686279296875
23.2001008987427,-0.005340576171875,-0.00213623046875,-0.016021728515625,-0.27740478515625,0.22064208984375,9.69451904296875
23.2998404502869,-0.00640869140625,-0.0042724609375,-0.016021728515625,-0.2728271484375,0.22979736328125,9.6990966796875
23.4000811576843,-0.00640869140625,-0.0042724609375,-0.016021728515625,-0.27557373046875,0.2215576171875,9.69818115234375
23.5003237724304,-0.005340576171875,-0.003204345703125,-0.016021728515625,-0.274658203125,0.2178955078125,9.6881103515625
23.6003103256226,-0.00640869140625,-0.0042724609375,-0.016021728515625,-0.2764892578125,0.2215576171875,9.71649169921875
23.6998810768127,-0.0042724609375,-0.0042724609375,-0.01495361328125,-0.27740478515625,0.2325439453125,9.7064208984375
23.8003652095795,-0.00640869140625,-0.003204345703125,-0.01495361328125,-0.274658203125,0.2178955078125,9.693603515625
23.9005365371704,-0.005340576171875,-0.0042724609375,-0.01495361328125,-0.27374267578125,0.22064208984375,9.6826171875
24.0000178813934,-0.00640869140625,-0.0042724609375,-0.01495361328125,-0.2783203125,0.22064208984375,9.68902587890625
24.0999464988708,-0.00640869140625,-0.0042724609375,-0.016021728515625,-0.2728271484375,0.22979736328125,9.69818115234375
24.2003452777863,-0.005340576171875,-0.003204345703125,-0.01495361328125,-0.2728271484375,0.2325439453125,9.71923828125
24.3001227378845,-0.005340576171875,-0.003204345703125,-0.016021728515625,-0.2838134765625,0.21697998046875,9.70550537109375
24.4002320766449,-0.005340576171875,-0.0042724609375,-0.016021728515625,-0.2838134765625,0.22430419921875,9.72015380859375
24.500860452652,-0.005340576171875,-0.0042724609375,-0.01708984375,-0.2764892578125,0.2215576171875,9.70001220703125
24.6000061035156,-0.00640869140625,-0.0042724609375,-0.01495361328125,-0.27923583984375,0.22247314453125,9.71099853515625
24.6999514102936,-0.00640869140625,-0.0042724609375,-0.016021728515625,-0.28656005859375,0.223388671875,9.69635009765625
24.8000168800354,-0.005340576171875,-0.003204345703125,-0.016021728515625,-0.27923583984375,0.22247314453125,9.68994140625
24.9007658958435,-0.007476806640625,-0.00213623046875,-0.01495361328125,-0.2801513671875,0.2178955078125,9.70458984375
25.0003864765167,-0.00640869140625,-0.00213623046875,-0.016021728515625,-0.27374267578125,0.22064208984375,9.686279296875
25.1001534461975,-0.005340576171875,-0.0042724609375,-0.01495361328125,-0.28106689453125,0.21881103515625,9.70458984375
25.2000637054443,-0.005340576171875,-0.0042724609375,-0.01708984375,-0.26824951171875,0.2252197265625,9.69635009765625
25.3014895915985,-0.00640869140625,-0.003204345703125,-0.016021728515625,-0.2783203125,0.216064453125,9.70550537109375
25.4001219272614,-0.005340576171875,-0.003204345703125,-0.01495361328125,-0.2728271484375,0.223388671875,9.70550537109375
25.4999992847443,-0.005340576171875,-0.0042724609375,-0.016021728515625,-0.2801513671875,0.2215576171875,9.7174072265625
25.600221157074,-0.005340576171875,-0.0042724609375,-0.01708984375,-0.27008056640625,0.22613525390625,9.69451904296875
25.7002341747284,-0.005340576171875,-0.003204345703125,-0.016021728515625,-0.274658203125,0.22705078125,9.7027587890625
25.8003056049347,-0.00640869140625,-0.005340576171875,-0.016021728515625,-0.2783203125,0.2197265625,9.700927734375
25.9002571105957,-0.005340576171875,-0.003204345703125,-0.016021728515625,-0.27557373046875,0.223388671875,9.686279296875
26.0000357627869,-0.005340576171875,-0.0042724609375,-0.016021728515625,-0.2764892578125,0.2142333984375,9.68994140625
26.1003339290619,-0.007476806640625,-0.0042724609375,-0.016021728515625,-0.2764892578125,0.22796630859375,9.7064208984375
26.2008197307587,-0.003204345703125,-0.0042724609375,-0.01495361328125,-0.2783203125,0.22247314453125,9.69635009765625
26.3003354072571,-0.00640869140625,-0.0042724609375,-0.016021728515625,-0.27557373046875,0.22796630859375,9.7119140625
26.4005613327026,-0.00640869140625,-0.0042724609375,-0.01495361328125,-0.2764892578125,0.2252197265625,9.71099853515625
26.5002467632294,-0.0042724609375,-0.003204345703125,-0.01495361328125,-0.28289794921875,0.22430419921875,9.70458984375
26.6006274223328,-0.00640869140625,-0.003204345703125,-0.016021728515625,-0.2911376953125,0.21514892578125,9.71099853515625
26.7006978988647,-0.00640869140625,-0.0042724609375,-0.01495361328125,-0.28289794921875,0.21881103515625,9.70550537109375
26.8001418113708,-0.005340576171875,-0.00213623046875,-0.016021728515625,-0.27374267578125,0.2252197265625,9.70001220703125
26.9001569747925,-0.00640869140625,-0.00213623046875,-0.016021728515625,-0.27740478515625,0.22705078125,9.7027587890625
27.0001564025879,-0.00640869140625,-0.003204345703125,-0.01708984375,-0.2801513671875,0.22430419921875,9.69451904296875
27.100159406662,-0.005340576171875,-0.0042724609375,-0.01495361328125,-0.2764892578125,0.22430419921875,9.6990966796875
27.2004065513611,-0.007476806640625,-0.003204345703125,-0.01495361328125,-0.27740478515625,0.2252197265625,9.700927734375
27.301353931427,-0.005340576171875,-0.003204345703125,-0.016021728515625,-0.27557373046875,0.2325439453125,9.70367431640625
27.4000079631805,-0.005340576171875,-0.0042724609375,-0.01495361328125,-0.2764892578125,0.22613525390625,9.700927734375
27.4998452663422,-0.00640869140625,-0.003204345703125,-0.01708984375,-0.2728271484375,0.223388671875,9.71923828125
27.6003065109253,-0.005340576171875,-0.00213623046875,-0.016021728515625,-0.2801513671875,0.230712890625,9.70367431640625
27.7005515098572,-0.007476806640625,-0.0042724609375,-0.016021728515625,-0.27923583984375,0.22430419921875,9.67987060546875
27.8000235557556,-0.005340576171875,-0.0042724609375,-0.016021728515625,-0.274658203125,0.2197265625,9.693603515625
27.9001967906952,-0.005340576171875,-0.0042724609375,-0.016021728515625,-0.28564453125,0.21881103515625,9.70550537109375
28.0000333786011,-0.005340576171875,-0.005340576171875,-0.016021728515625,-0.28289794921875,0.22705078125,9.7027587890625
28.100044965744,-0.0042724609375,-0.0042724609375,-0.016021728515625,-0.2838134765625,0.22705078125,9.70001220703125
28.1999814510345,-0.0042724609375,-0.003204345703125,-0.016021728515625,-0.27740478515625,0.22430419921875,9.697265625
28.3002474308014,-0.00640869140625,-0.0042724609375,-0.016021728515625,-0.27923583984375,0.2252197265625,9.69635009765625
28.4003040790558,-0.005340576171875,-0.003204345703125,-0.016021728515625,-0.28106689453125,0.2215576171875,9.70001220703125
28.5002858638763,-0.005340576171875,-0.00213623046875,-0.016021728515625,-0.28106689453125,0.22796630859375,9.708251953125
28.6000466346741,-0.005340576171875,-0.003204345703125,-0.016021728515625,-0.27740478515625,0.22064208984375,9.69635009765625
28.700012922287,-0.00640869140625,-0.0042724609375,-0.016021728515625,-0.2911376953125,0.22796630859375,9.68536376953125
28.8001756668091,-0.007476806640625,-0.0042724609375,-0.01495361328125,-0.2838134765625,0.22979736328125,9.70001220703125
28.9002368450165,-0.00640869140625,-0.003204345703125,-0.016021728515625,-0.281982421875,0.22796630859375,9.70550537109375
29.0002779960632,-0.005340576171875,-0.003204345703125,-0.01495361328125,-0.274658203125,0.22247314453125,9.700927734375
29.1004190444946,-0.005340576171875,-0.003204345703125,-0.01495361328125,-0.28472900390625,0.22430419921875,9.68719482421875
29.2003247737885,-0.005340576171875,-0.0042724609375,-0.01495361328125,-0.2874755859375,0.223388671875,9.708251953125
29.3001103401184,-0.005340576171875,-0.005340576171875,-0.016021728515625,-0.28564453125,0.2252197265625,9.70550537109375
29.3998959064484,-0.00640869140625,-0.00213623046875,-0.01495361328125,-0.28289794921875,0.22705078125,9.71099853515625
29.5003116130829,-0.0042724609375,-0.0042724609375,-0.016021728515625,-0.2838134765625,0.2288818359375,9.70458984375
29.6002781391144,-0.005340576171875,-0.005340576171875,-0.01495361328125,-0.27374267578125,0.22430419921875,9.69451904296875
29.6998693943024,-0.0042724609375,-0.005340576171875,-0.01495361328125,-0.2838134765625,0.230712890625,9.697265625
29.7999756336212,-0.005340576171875,-0.005340576171875,-0.01495361328125,-0.2783203125,0.22064208984375,9.6826171875
29.9011645317078,-0.00640869140625,-0.005340576171875,-0.016021728515625,-0.2801513671875,0.22613525390625,9.68719482421875
30.0016651153564,-0.00640869140625,-0.0042724609375,-0.01495361328125,-0.27923583984375,0.2215576171875,9.68719482421875
30.1011531352997,-0.005340576171875,-0.0042724609375,-0.01495361328125,-0.2728271484375,0.22430419921875,9.697265625
30.2004511356354,-0.005340576171875,-0.0042724609375,-0.01495361328125,-0.27374267578125,0.223388671875,9.693603515625
30.3000814914703,-0.00640869140625,-0.003204345703125,-0.016021728515625,-0.2691650390625,0.216064453125,9.70367431640625
30.3998966217041,-0.005340576171875,-0.003204345703125,-0.016021728515625,-0.26824951171875,0.2178955078125,9.700927734375
30.4998738765717,-0.00640869140625,-0.00213623046875,-0.01495361328125,-0.27923583984375,0.22430419921875,9.7027587890625
30.6004920005798,-0.00640869140625,-0.003204345703125,-0.016021728515625,-0.28656005859375,0.2197265625,9.69451904296875
30.6998651027679,-0.005340576171875,-0.005340576171875,-0.01495361328125,-0.27740478515625,0.22064208984375,9.70367431640625
30.800657749176,-0.00640869140625,-0.003204345703125,-0.01495361328125,-0.28472900390625,0.21331787109375,9.678955078125
30.9011147022247,-0.00640869140625,-0.00213623046875,-0.016021728515625,-0.27740478515625,0.21697998046875,9.69818115234375
31.0002281665802,-0.00640869140625,-0.001068115234375,-0.013885498046875,-0.25543212890625,0.2197265625,9.7174072265625
31.1004979610443,-0.0042724609375,-0.003204345703125,-0.013885498046875,-0.26824951171875,0.22796630859375,9.708251953125
31.200115442276,-0.00640869140625,-0.0042724609375,-0.01495361328125,-0.27557373046875,0.2197265625,9.71282958984375
31.3002095222473,-0.005340576171875,-0.003204345703125,-0.016021728515625,-0.28106689453125,0.22064208984375,9.70550537109375
31.4011828899384,-0.00640869140625,-0.00213623046875,-0.01495361328125,-0.274658203125,0.22796630859375,9.68536376953125
31.5002150535583,-0.00640869140625,-0.003204345703125,-0.01495361328125,-0.27557373046875,0.22247314453125,9.71099853515625
31.6007890701294,-0.0042724609375,0.001068115234375,-0.016021728515625,-0.27191162109375,0.223388671875,9.68994140625
31.700263261795,-0.005340576171875,-0.003204345703125,-0.01708984375,-0.28106689453125,0.22247314453125,9.6881103515625
31.8005452156067,-0.005340576171875,-0.001068115234375,-0.016021728515625,-0.26824951171875,0.21514892578125,9.69451904296875
31.9002029895782,-0.00640869140625,-0.0042724609375,-0.016021728515625,-0.2764892578125,0.2215576171875,9.70916748046875
31.9999041557312,-0.005340576171875,-0.003204345703125,-0.01495361328125,-0.28564453125,0.21881103515625,9.68536376953125
32.1013188362122,-0.005340576171875,-0.00213623046875,-0.01495361328125,-0.28472900390625,0.21697998046875,9.6990966796875
32.2000906467438,-0.00640869140625,-0.001068115234375,-0.01495361328125,-0.28106689453125,0.22064208984375,9.7100830078125
32.3000199794769,-0.005340576171875,-0.00213623046875,-0.01495361328125,-0.29022216796875,0.21514892578125,9.71466064453125
32.4013674259186,-0.005340576171875,-0.00213623046875,-0.01495361328125,-0.28839111328125,0.223388671875,9.70001220703125
32.5014588832855,-0.005340576171875,-0.003204345703125,-0.01495361328125,-0.27923583984375,0.2252197265625,9.68994140625
32.5998458862305,-0.00640869140625,-0.00213623046875,-0.016021728515625,-0.27191162109375,0.2215576171875,9.6954345703125
32.7001192569733,-0.005340576171875,-0.005340576171875,-0.016021728515625,-0.2801513671875,0.2142333984375,9.686279296875
32.8010537624359,-0.00640869140625,-0.003204345703125,-0.016021728515625,-0.2874755859375,0.22613525390625,9.68170166015625
32.8999810218811,-0.005340576171875,-0.003204345703125,-0.01495361328125,-0.28564453125,0.2178955078125,9.70458984375
32.9998352527618,-0.005340576171875,-0.003204345703125,-0.016021728515625,-0.27923583984375,0.2215576171875,9.708251953125
33.0999965667725,-0.00640869140625,-0.0042724609375,-0.016021728515625,-0.2764892578125,0.22247314453125,9.7027587890625
33.2005929946899,-0.00640869140625,-0.003204345703125,-0.01495361328125,-0.289306640625,0.22979736328125,9.69085693359375
33.2998354434967,-0.005340576171875,-0.0042724609375,-0.016021728515625,-0.28472900390625,0.2252197265625,9.70184326171875
33.4008824825287,-0.00640869140625,-0.0042724609375,-0.01495361328125,-0.27740478515625,0.22613525390625,9.70367431640625
33.5017654895782,-0.00640869140625,-0.0042724609375,-0.01708984375,-0.28472900390625,0.2252197265625,9.686279296875
33.5997941493988,-0.00640869140625,-0.0042724609375,-0.016021728515625,-0.2801513671875,0.22430419921875,9.686279296875
33.7001001834869,-0.00640869140625,-0.0042724609375,-0.016021728515625,-0.27099609375,0.230712890625,9.6807861328125
33.7998712062836,-0.00640869140625,-0.003204345703125,-0.016021728515625,-0.28656005859375,0.223388671875,9.68994140625
33.900520324707,-0.0042724609375,-0.003204345703125,-0.016021728515625,-0.281982421875,0.2252197265625,9.71466064453125
34.0000216960907,-0.005340576171875,-0.003204345703125,-0.01495361328125,-0.27557373046875,0.22247314453125,9.70916748046875
34.1004750728607,-0.005340576171875,-0.003204345703125,-0.016021728515625,-0.2783203125,0.223388671875,9.71099853515625
34.2007162570953,-0.005340576171875,-0.0042724609375,-0.016021728515625,-0.281982421875,0.22247314453125,9.70916748046875
34.3003225326538,-0.00640869140625,-0.0042724609375,-0.016021728515625,-0.27008056640625,0.2252197265625,9.7027587890625
34.4013543128967,-0.00640869140625,-0.0042724609375,-0.01495361328125,-0.27923583984375,0.234375,9.7027587890625
34.5006260871887,-0.005340576171875,-0.00213623046875,-0.01495361328125,-0.27191162109375,0.21881103515625,9.6917724609375
34.6000277996063,-0.005340576171875,-0.003204345703125,-0.01495361328125,-0.27191162109375,0.22796630859375,9.69635009765625
34.700083732605,-0.005340576171875,-0.003204345703125,-0.01495361328125,-0.26824951171875,0.234375,9.693603515625
34.8012640476227,-0.005340576171875,-0.0042724609375,-0.016021728515625,-0.274658203125,0.2252197265625,9.697265625
34.9002079963684,-0.00640869140625,-0.0042724609375,-0.016021728515625,-0.2838134765625,0.2215576171875,9.7027587890625
35.0004076957703,-0.00640869140625,-0.003204345703125,-0.01495361328125,-0.27191162109375,0.223388671875,9.7119140625
35.0998804569244,-0.00640869140625,-0.0042724609375,-0.016021728515625,-0.27740478515625,0.223388671875,9.7100830078125
35.2002809047699,-0.005340576171875,-0.0042724609375,-0.016021728515625,-0.28839111328125,0.22705078125,9.70001220703125
35.3000464439392,-0.00640869140625,-0.0042724609375,-0.016021728515625,-0.281982421875,0.23162841796875,9.7119140625
35.4000144004822,-0.00640869140625,-0.00213623046875,-0.01495361328125,-0.2801513671875,0.2325439453125,9.68994140625
35.4999806880951,-0.005340576171875,-0.003204345703125,-0.016021728515625,-0.2783203125,0.22064208984375,9.69451904296875
35.6008446216583,-0.005340576171875,-0.00213623046875,-0.01495361328125,-0.27374267578125,0.22247314453125,9.68902587890625
35.7001214027405,-0.005340576171875,-0.003204345703125,-0.016021728515625,-0.28656005859375,0.2215576171875,9.6990966796875
35.8000860214233,-0.005340576171875,-0.0042724609375,-0.016021728515625,-0.2691650390625,0.22979736328125,9.69635009765625
35.9000215530396,-0.007476806640625,-0.003204345703125,-0.01495361328125,-0.28106689453125,0.22979736328125,9.71649169921875
35.9997849464417,-0.00640869140625,-0.00213623046875,-0.016021728515625,-0.281982421875,0.21697998046875,9.7119140625
36.1000764369965,-0.00640869140625,-0.003204345703125,-0.016021728515625,-0.274658203125,0.223388671875,9.70184326171875
36.1998565196991,-0.005340576171875,-0.003204345703125,-0.016021728515625,-0.28289794921875,0.21881103515625,9.70367431640625
36.3002550601959,-0.00640869140625,-0.0042724609375,-0.016021728515625,-0.27191162109375,0.234375,9.6990966796875
36.3999526500702,-0.00640869140625,-0.0042724609375,-0.016021728515625,-0.2728271484375,0.2288818359375,9.68994140625
36.5007457733154,-0.00640869140625,-0.00213623046875,-0.016021728515625,-0.2783203125,0.2215576171875,9.7027587890625
36.5999488830566,-0.00640869140625,-0.0042724609375,-0.016021728515625,-0.2783203125,0.22430419921875,9.69451904296875
36.7000911235809,-0.00640869140625,-0.0042724609375,-0.016021728515625,-0.2783203125,0.22613525390625,9.70733642578125
36.8002545833588,-0.005340576171875,-0.0042724609375,-0.01708984375,-0.27557373046875,0.21240234375,9.70367431640625
36.8999259471893,-0.005340576171875,-0.0042724609375,-0.016021728515625,-0.28106689453125,0.223388671875,9.693603515625
37.0000922679901,-0.005340576171875,-0.003204345703125,-0.016021728515625,-0.27740478515625,0.2197265625,9.70458984375
37.1001284122467,-0.007476806640625,-0.00213623046875,-0.016021728515625,-0.2691650390625,0.22247314453125,9.70367431640625
37.2005236148834,-0.00640869140625,-0.0042724609375,-0.01495361328125,-0.2764892578125,0.2252197265625,9.6954345703125
37.3001291751862,-0.005340576171875,-0.003204345703125,-0.01708984375,-0.2728271484375,0.22613525390625,9.70367431640625
37.4001843929291,-0.005340576171875,-0.003204345703125,-0.016021728515625,-0.27374267578125,0.21514892578125,9.70367431640625
37.5000650882721,-0.00640869140625,-0.0042724609375,-0.016021728515625,-0.27008056640625,0.22430419921875,9.6826171875
37.6003260612488,-0.005340576171875,-0.003204345703125,-0.01495361328125,-0.2764892578125,0.2178955078125,9.7027587890625
37.6998298168182,-0.00640869140625,-0.003204345703125,-0.016021728515625,-0.2764892578125,0.22613525390625,9.69268798828125
37.799875497818,-0.00640869140625,-0.003204345703125,-0.01495361328125,-0.27008056640625,0.22613525390625,9.69635009765625
37.8999767303467,-0.005340576171875,-0.00213623046875,-0.01495361328125,-0.27191162109375,0.2252197265625,9.7027587890625
38.000129699707,-0.005340576171875,-0.00213623046875,-0.016021728515625,-0.27374267578125,0.223388671875,9.70550537109375
38.0998363494873,-0.00640869140625,-0.003204345703125,-0.01495361328125,-0.2691650390625,0.22796630859375,9.70184326171875
38.2003746032715,-0.00640869140625,-0.0042724609375,-0.016021728515625,-0.2801513671875,0.22613525390625,9.7137451171875
38.3003985881805,-0.005340576171875,-0.0042724609375,-0.01495361328125,-0.281982421875,0.2288818359375,9.69635009765625
38.4001088142395,-0.005340576171875,-0.0042724609375,-0.016021728515625,-0.2764892578125,0.2252197265625,9.678955078125
38.5013270378113,-0.00640869140625,-0.0042724609375,-0.016021728515625,-0.26824951171875,0.2215576171875,9.6881103515625
38.6000809669495,-0.00640869140625,-0.0042724609375,-0.016021728515625,-0.27923583984375,0.2197265625,9.67803955078125
38.7003126144409,-0.0042724609375,-0.003204345703125,-0.01495361328125,-0.27740478515625,0.2252197265625,9.693603515625
38.8002843856812,-0.00640869140625,-0.003204345703125,-0.01495361328125,-0.28472900390625,0.2252197265625,9.686279296875
38.901787519455,-0.00640869140625,-0.003204345703125,-0.016021728515625,-0.28106689453125,0.230712890625,9.70184326171875
39.0010411739349,-0.00640869140625,-0.0042724609375,-0.01495361328125,-0.2764892578125,0.22979736328125,9.6954345703125
39.1002447605133,-0.005340576171875,-0.0042724609375,-0.016021728515625,-0.2691650390625,0.2288818359375,9.7027587890625
39.2004721164703,-0.00640869140625,-0.0042724609375,-0.01495361328125,-0.2728271484375,0.22064208984375,9.70733642578125
39.3003294467926,-0.00640869140625,-0.003204345703125,-0.01495361328125,-0.27099609375,0.223388671875,9.700927734375
39.399893283844,-0.00640869140625,-0.0042724609375,-0.016021728515625,-0.28106689453125,0.22613525390625,9.69818115234375
39.5005705356598,-0.005340576171875,-0.003204345703125,-0.016021728515625,-0.27191162109375,0.23162841796875,9.69451904296875
39.6002600193024,-0.005340576171875,-0.0042724609375,-0.016021728515625,-0.2728271484375,0.2288818359375,9.69451904296875
39.6999218463898,-0.005340576171875,-0.0042724609375,-0.01708984375,-0.28472900390625,0.223388671875,9.71099853515625
39.800577878952,-0.00640869140625,-0.0042724609375,-0.016021728515625,-0.281982421875,0.230712890625,9.6826171875
39.9007201194763,-0.00640869140625,-0.003204345703125,-0.01495361328125,-0.2728271484375,0.22613525390625,9.6954345703125
39.9997758865356,-0.005340576171875,-0.0042724609375,-0.016021728515625,-0.281982421875,0.22979736328125,9.708251953125
40.1004278659821,-0.005340576171875,-0.0042724609375,-0.01495361328125,-0.28656005859375,0.2178955078125,9.708251953125
40.1998519897461,-0.005340576171875,-0.005340576171875,-0.016021728515625,-0.2801513671875,0.22613525390625,9.69268798828125
40.3003203868866,-0.005340576171875,-0.00213623046875,-0.01495361328125,-0.28289794921875,0.22064208984375,9.68994140625
40.4002227783203,-0.0042724609375,-0.005340576171875,-0.01495361328125,-0.27923583984375,0.22430419921875,9.69268798828125
40.500958442688,-0.00640869140625,-0.003204345703125,-0.01495361328125,-0.2801513671875,0.234375,9.6844482421875
40.5999395847321,-0.0042724609375,-0.0042724609375,-0.016021728515625,-0.27374267578125,0.21881103515625,9.6917724609375
40.7003202438354,-0.005340576171875,-0.003204345703125,-0.01495361328125,-0.2801513671875,0.22705078125,9.70184326171875
40.8004858493805,-0.00640869140625,-0.003204345703125,-0.016021728515625,-0.2764892578125,0.23895263671875,9.70916748046875
40.8997933864594,-0.005340576171875,-0.0042724609375,-0.01495361328125,-0.274658203125,0.22796630859375,9.70733642578125
41.000207901001,-0.00640869140625,-0.0042724609375,-0.01495361328125,-0.27740478515625,0.23162841796875,9.71282958984375
41.1003801822662,-0.005340576171875,-0.00213623046875,-0.01708984375,-0.27557373046875,0.22247314453125,9.69635009765625
41.1998529434204,-0.00640869140625,-0.00213623046875,-0.01708984375,-0.274658203125,0.21697998046875,9.7027587890625
41.300142288208,-0.005340576171875,-0.00213623046875,-0.016021728515625,-0.27923583984375,0.2252197265625,9.6954345703125
41.4001259803772,-0.00640869140625,-0.0042724609375,-0.016021728515625,-0.27374267578125,0.2252197265625,9.693603515625
41.4999032020569,-0.005340576171875,-0.003204345703125,-0.01495361328125,-0.28839111328125,0.223388671875,9.70550537109375
41.600358247757,-0.005340576171875,-0.00213623046875,-0.016021728515625,-0.274658203125,0.22247314453125,9.6881103515625
41.6999802589417,-0.00640869140625,-0.0042724609375,-0.01495361328125,-0.2728271484375,0.22247314453125,9.70367431640625
41.7998352050781,-0.007476806640625,-0.003204345703125,-0.01495361328125,-0.27099609375,0.223388671875,9.69818115234375
41.9000706672668,-0.005340576171875,-0.0042724609375,-0.016021728515625,-0.27923583984375,0.22613525390625,9.7027587890625
42.0002708435059,-0.005340576171875,-0.0042724609375,-0.01495361328125,-0.274658203125,0.22247314453125,9.70367431640625
42.1003310680389,-0.005340576171875,-0.0042724609375,-0.01495361328125,-0.2838134765625,0.2252197265625,9.6881103515625
42.2005250453949,-0.005340576171875,-0.005340576171875,-0.01495361328125,-0.27374267578125,0.2252197265625,9.7174072265625
42.2999198436737,-0.005340576171875,-0.0042724609375,-0.01495361328125,-0.27923583984375,0.2252197265625,9.69451904296875
42.4008498191833,-0.005340576171875,-0.003204345703125,-0.01708984375,-0.281982421875,0.2178955078125,9.700927734375
42.5007753372192,-0.00640869140625,-0.003204345703125,-0.01495361328125,-0.28106689453125,0.2178955078125,9.68719482421875
42.5998764038086,-0.0042724609375,-0.003204345703125,-0.01495361328125,-0.28472900390625,0.2252197265625,9.71099853515625
42.7002754211426,-0.00640869140625,-0.0042724609375,-0.01495361328125,-0.2783203125,0.22796630859375,9.69451904296875
42.7998192310333,-0.00640869140625,-0.003204345703125,-0.016021728515625,-0.27191162109375,0.230712890625,9.697265625
42.8998239040375,-0.005340576171875,-0.003204345703125,-0.016021728515625,-0.27099609375,0.22430419921875,9.708251953125
43.000226020813,-0.00640869140625,-0.00213623046875,-0.016021728515625,-0.27740478515625,0.22247314453125,9.68719482421875
43.1003351211548,-0.005340576171875,-0.00213623046875,-0.016021728515625,-0.2764892578125,0.23162841796875,9.69451904296875
43.1999776363373,-0.00640869140625,-0.003204345703125,-0.01495361328125,-0.28106689453125,0.22064208984375,9.700927734375
43.3017814159393,-0.005340576171875,-0.005340576171875,-0.01495361328125,-0.2783203125,0.2288818359375,9.6917724609375
43.4000520706177,-0.0042724609375,-0.003204345703125,-0.01495361328125,-0.27740478515625,0.2215576171875,9.6844482421875
43.4999086856842,-0.00640869140625,-0.0042724609375,-0.01495361328125,-0.281982421875,0.230712890625,9.6844482421875
43.6005227565765,-0.00640869140625,-0.0042724609375,-0.016021728515625,-0.28106689453125,0.2197265625,9.67620849609375
43.7003328800201,-0.005340576171875,-0.003204345703125,-0.01495361328125,-0.28106689453125,0.22979736328125,9.6844482421875
43.8001954555511,-0.00640869140625,-0.0042724609375,-0.01495361328125,-0.2801513671875,0.2325439453125,9.71466064453125
43.9018127918243,-0.005340576171875,-0.003204345703125,-0.01495361328125,-0.274658203125,0.2252197265625,9.70733642578125
44.0000746250153,-0.00640869140625,-0.0042724609375,-0.016021728515625,-0.26824951171875,0.22979736328125,9.70367431640625
44.1002767086029,-0.00640869140625,-0.0042724609375,-0.013885498046875,-0.27740478515625,0.2215576171875,9.697265625
44.1999070644379,-0.005340576171875,-0.003204345703125,-0.01495361328125,-0.2783203125,0.2215576171875,9.69635009765625
44.2998712062836,-0.00640869140625,-0.0042724609375,-0.016021728515625,-0.2783203125,0.23162841796875,9.69085693359375
44.4003977775574,-0.005340576171875,-0.0042724609375,-0.016021728515625,-0.2801513671875,0.2197265625,9.6881103515625
44.4999120235443,-0.00640869140625,-0.003204345703125,-0.016021728515625,-0.28289794921875,0.22064208984375,9.6917724609375
44.5998227596283,-0.008544921875,-0.003204345703125,-0.016021728515625,-0.274658203125,0.21881103515625,9.6990966796875
44.7000515460968,-0.005340576171875,-0.00213623046875,-0.01495361328125,-0.2691650390625,0.2288818359375,9.7174072265625
44.7998199462891,-0.007476806640625,-0.001068115234375,-0.01495361328125,-0.27374267578125,0.2197265625,9.700927734375
44.8998928070068,-0.005340576171875,-0.003204345703125,-0.016021728515625,-0.2691650390625,0.230712890625,9.7210693359375
45.0002496242523,-0.00640869140625,-0.005340576171875,-0.016021728515625,-0.28289794921875,0.22613525390625,9.700927734375
45.1000287532806,-0.0042724609375,-0.0042724609375,-0.016021728515625,-0.27740478515625,0.22613525390625,9.70184326171875
45.1999847888947,-0.005340576171875,-0.003204345703125,-0.01495361328125,-0.27008056640625,0.23162841796875,9.69635009765625
45.3004689216614,-0.00640869140625,-0.0042724609375,-0.016021728515625,-0.27191162109375,0.21881103515625,9.6881103515625
45.3998866081238,-0.0042724609375,-0.003204345703125,-0.01495361328125,-0.27374267578125,0.2197265625,9.68536376953125
45.5004858970642,-0.005340576171875,-0.003204345703125,-0.01495361328125,-0.27099609375,0.22796630859375,9.68994140625
45.5999736785889,-0.009613037109375,-0.0042724609375,-0.0128173828125,-0.26458740234375,0.2178955078125,9.7100830078125
45.7000069618225,-0.0042724609375,-0.005340576171875,-0.013885498046875,-0.29296875,0.22613525390625,9.68719482421875
45.7998309135437,-0.003204345703125,-0.0042724609375,-0.013885498046875,-0.2764892578125,0.22705078125,9.7064208984375
45.9001429080963,-0.005340576171875,-0.003204345703125,-0.016021728515625,-0.28289794921875,0.22430419921875,9.6844482421875
46.0015106201172,-0.0042724609375,-0.0042724609375,-0.01495361328125,-0.28472900390625,0.22796630859375,9.69085693359375
46.1014275550842,-0.005340576171875,-0.0042724609375,-0.013885498046875,-0.28564453125,0.21697998046875,9.70001220703125
46.1997766494751,-0.005340576171875,-0.0042724609375,-0.016021728515625,-0.281982421875,0.2215576171875,9.69085693359375
46.2998976707458,-0.005340576171875,-0.00213623046875,-0.016021728515625,-0.27099609375,0.23162841796875,9.69818115234375
46.400221824646,-0.005340576171875,-0.003204345703125,-0.016021728515625,-0.2838134765625,0.22613525390625,9.71466064453125
46.5002434253693,-0.005340576171875,-0.003204345703125,-0.01708984375,-0.27557373046875,0.21697998046875,9.68353271484375
46.6006469726562,-0.0042724609375,-0.005340576171875,-0.016021728515625,-0.2764892578125,0.2215576171875,9.69268798828125
46.700464963913,-0.005340576171875,-0.0042724609375,-0.016021728515625,-0.2783203125,0.22064208984375,9.70733642578125
46.8001930713654,-0.00640869140625,-0.0042724609375,-0.01495361328125,-0.2783203125,0.223388671875,9.70733642578125
46.9003267288208,-0.005340576171875,-0.005340576171875,-0.01708984375,-0.28472900390625,0.23162841796875,9.7137451171875
47.0002133846283,-0.005340576171875,-0.003204345703125,-0.016021728515625,-0.2728271484375,0.2215576171875,9.7100830078125
47.1005663871765,-0.005340576171875,-0.003204345703125,-0.016021728515625,-0.28289794921875,0.22247314453125,9.6917724609375
47.1998600959778,-0.00640869140625,-0.0042724609375,-0.016021728515625,-0.2691650390625,0.223388671875,9.66705322265625
47.3015778064728,-0.00640869140625,-0.00213623046875,-0.01495361328125,-0.27923583984375,0.22247314453125,9.68902587890625
47.4001631736755,-0.0042724609375,-0.0042724609375,-0.01708984375,-0.27191162109375,0.21697998046875,9.69635009765625
47.4998509883881,-0.005340576171875,-0.0042724609375,-0.016021728515625,-0.2783203125,0.2252197265625,9.69268798828125
47.6002449989319,-0.00640869140625,-0.00213623046875,-0.013885498046875,-0.27740478515625,0.2252197265625,9.6990966796875
47.7001430988312,-0.005340576171875,-0.003204345703125,-0.01495361328125,-0.2801513671875,0.2252197265625,9.68719482421875
47.8002064228058,-0.0042724609375,-0.003204345703125,-0.016021728515625,-0.2801513671875,0.2252197265625,9.70458984375
47.9010403156281,-0.00640869140625,-0.003204345703125,-0.01495361328125,-0.27191162109375,0.22796630859375,9.69085693359375
48.0014917850494,-0.005340576171875,-0.00213623046875,-0.016021728515625,-0.2728271484375,0.2215576171875,9.6990966796875
48.1004037857056,-0.00640869140625,-0.003204345703125,-0.016021728515625,-0.28472900390625,0.2215576171875,9.71282958984375
48.1998426914215,-0.005340576171875,-0.00213623046875,-0.01495361328125,-0.2783203125,0.2252197265625,9.69635009765625
48.2998046875,-0.005340576171875,-0.003204345703125,-0.016021728515625,-0.27191162109375,0.22247314453125,9.68170166015625
48.4001750946045,-0.005340576171875,-0.00213623046875,-0.016021728515625,-0.2764892578125,0.223388671875,9.70367431640625
48.5000462532043,-0.00640869140625,-0.0042724609375,-0.01495361328125,-0.27557373046875,0.22613525390625,9.70458984375
48.6003985404968,-0.0042724609375,-0.0042724609375,-0.01495361328125,-0.28472900390625,0.22613525390625,9.7119140625
48.7000279426575,-0.00640869140625,-0.003204345703125,-0.016021728515625,-0.2801513671875,0.22613525390625,9.70001220703125
48.7999477386475,-0.005340576171875,-0.0042724609375,-0.01495361328125,-0.2691650390625,0.22430419921875,9.70733642578125
48.9003674983978,-0.005340576171875,-0.003204345703125,-0.016021728515625,-0.2691650390625,0.22613525390625,9.68902587890625
49.0003144741058,-0.033111572265625,-0.03631591796875,-0.016021728515625,-0.2984619140625,0.2691650390625,9.69268798828125
49.0999944210052,0,-0.0042724609375,-0.01495361328125,-0.2838134765625,0.23895263671875,9.68719482421875
49.1997761726379,-0.005340576171875,-0.0042724609375,-0.01495361328125,-0.274658203125,0.2105712890625,9.686279296875
49.2997951507568,-0.007476806640625,-0.005340576171875,-0.016021728515625,-0.27740478515625,0.22613525390625,9.700927734375
49.3999836444855,0.08758544921875,0.076904296875,-0.0384521484375,0.07415771484375,-0.03753662109375,9.7613525390625
49.5005407333374,0.144195556640625,0.122833251953125,0.265960693359375,-0.05218505859375,-0.40924072265625,10.0094604492188
49.5999691486359,0.128173828125,0.008544921875,0.701751708984375,-0.00274658203125,-0.94757080078125,10.1541137695312
49.6998524665833,-1.13754272460938,1.68975830078125,0.35247802734375,-2.98004150390625,-0.780029296875,11.1026000976562
49.8000221252441,-0.2862548828125,-0.447540283203125,0.40374755859375,1.01165771484375,0.3790283203125,12.01171875
49.9008724689484,0.076904296875,0.08544921875,-0.366363525390625,-1.439208984375,-1.51885986328125,12.4685668945312
49.9999270439148,0.795745849609375,-0.1580810546875,-0.53192138671875,-1.21490478515625,-0.172119140625,13.3657836914062
50.0998332500458,0.39306640625,-0.145263671875,-0.650482177734375,-2.7667236328125,-1.18560791015625,11.5228271484375
50.2001118659973,-0.87799072265625,-0.686798095703125,0.17303466796875,-2.24945068359375,-0.05401611328125,11.0916137695312
50.2999887466431,0.128173828125,-0.70709228515625,-0.2734375,-2.08648681640625,-0.35614013671875,10.2365112304688
50.4000232219696,0.01068115234375,-0.04913330078125,-0.073699951171875,-1.30096435546875,-0.35430908203125,8.56109619140625
50.4998359680176,-0.366363525390625,0.45928955078125,-0.7135009765625,-1.2579345703125,-0.01190185546875,9.80072021484375
50.5998203754425,-0.69427490234375,0.62591552734375,-0.520172119140625,-2.76031494140625,-2.1240234375,8.42193603515625
50.7000658512115,0.195465087890625,0.302276611328125,-0.415496826171875,-1.46942138671875,-1.20574951171875,10.3262329101562
50.8002672195435,-0.82672119140625,0.10467529296875,-0.5169677734375,-1.593017578125,-0.743408203125,9.2742919921875
50.9001533985138,-0.432586669921875,0.40802001953125,-0.9613037109375,-2.7667236328125,-2.6202392578125,6.96258544921875
51.0007855892181,0.060882568359375,0.233917236328125,-0.483856201171875,-1.82281494140625,-3.07525634765625,7.45147705078125
51.1000018119812,-0.264892578125,-0.116424560546875,-1.5594482421875,-1.1956787109375,-1.75048828125,8.111572265625
51.1998815536499,0.575714111328125,0.233917236328125,-1.26571655273438,-1.48590087890625,-1.11419677734375,7.61444091796875
51.2998869419098,-0.67718505859375,0.052337646484375,-1.07345581054688,-2.09197998046875,-1.1993408203125,8.64898681640625
51.4010646343231,-0.25848388671875,-0.145263671875,-0.891876220703125,1.44561767578125,1.39434814453125,6.79046630859375
51.5014944076538,1.16958618164062,0.3204345703125,-0.45074462890625,-1.36962890625,-0.7635498046875,8.411865234375
51.6001665592194,0.2606201171875,-0.075836181640625,-0.49560546875,0.76080322265625,1.03729248046875,9.5159912109375
51.7004013061523,0.87799072265625,0.253143310546875,-0.17303466796875,-0.88714599609375,0.908203125,9.03900146484375
51.8003089427948,-0.028839111328125,-0.3460693359375,0.896148681640625,1.29547119140625,1.2103271484375,10.1248168945312
51.9006950855255,0.866241455078125,0.500946044921875,-0.268096923828125,-0.20050048828125,-0.2490234375,7.02117919921875
52.0015788078308,-0.13458251953125,-0.03631591796875,-0.1025390625,-1.014404296875,-0.92926025390625,9.29718017578125
52.099974155426,-0.3546142578125,-0.2435302734375,-0.114288330078125,-0.26092529296875,-1.62689208984375,9.8675537109375
52.2000758647919,-0.1495361328125,-0.30975341796875,0.150604248046875,0.33599853515625,-1.1260986328125,9.7613525390625
52.3002049922943,0.42724609375,-0.059814453125,-0.095062255859375,1.09039306640625,0.3131103515625,9.03167724609375
52.4000637531281,-0.118560791015625,0.289459228515625,0.193328857421875,0.22430419921875,0.087890625,9.349365234375
52.4997828006744,-0.0042724609375,0.07904052734375,-0.146331787109375,0.4248046875,1.3897705078125,9.0069580078125
52.6003274917603,0.709228515625,-0.076904296875,0.093994140625,-0.77362060546875,0.6829833984375,9.81353759765625
52.7003655433655,0.15594482421875,-0.041656494140625,0.0640869140625,-0.51177978515625,1.1224365234375,9.57550048828125
52.7999300956726,-0.285186767578125,0.00213623046875,-0.281982421875,0.28656005859375,0.7012939453125,9.65972900390625
52.9000520706177,-0.22216796875,-0.048065185546875,-0.116424560546875,0.13916015625,0.6939697265625,9.16259765625
53.0002286434174,-0.063018798828125,-0.114288330078125,0.103607177734375,0.37994384765625,0.450439453125,9.4427490234375
53.099846124649,0.10894775390625,0.0213623046875,0.31402587890625,0.48065185546875,0.66650390625,9.75311279296875
53.2002604007721,-0.020294189453125,0.137786865234375,0.0384521484375,0.92376708984375,0.7818603515625,9.056396484375
53.3003900051117,-0.03204345703125,0.05340576171875,0.028839111328125,0.4156494140625,0.11810302734375,9.6661376953125
53.4003913402557,0.129241943359375,0.042724609375,0.01068115234375,0.29388427734375,0.62713623046875,9.6551513671875
53.5001440048218,0.07049560546875,-0.101470947265625,-0.225372314453125,0.94207763671875,-0.1409912109375,10.4013061523438
53.6000082492828,0.283050537109375,0.34393310546875,0.25421142578125,-0.21697998046875,0.68939208984375,10.4507446289062
53.7003824710846,-0.22216796875,0.07904052734375,0.101470947265625,-1.014404296875,1.22222900390625,9.254150390625
53.799880027771,-0.274505615234375,-0.165557861328125,-0.042724609375,-0.87249755859375,-0.48431396484375,10.4269409179688
53.9001669883728,0.092926025390625,0.03631591796875,0.093994140625,-0.66009521484375,0.54656982421875,9.07196044921875
53.9998276233673,-0.060882568359375,-0.146331787109375,-0.07049560546875,-0.5694580078125,0.179443359375,9.80255126953125
54.1003663539886,0.308685302734375,0.069427490234375,-0.008544921875,-1.2249755859375,-0.79742431640625,9.63775634765625
54.2001881599426,0.12603759765625,-0.556488037109375,-0.27130126953125,0.10711669921875,0.01190185546875,10.1632690429688
54.3005216121674,-0.2606201171875,-0.124969482421875,-0.368499755859375,2.281494140625,1.1553955078125,10.2951049804688
54.400678396225,-0.180511474609375,-0.11322021484375,-0.280914306640625,-0.3955078125,-1.9793701171875,9.33563232421875
54.4998271465302,0.05767822265625,0.26702880859375,-0.0299072265625,1.171875,-0.16571044921875,8.8055419921875
54.600049495697,-0.387725830078125,-0.039520263671875,-0.372772216796875,0.472412109375,-1.3128662109375,9.58099365234375
54.7004647254944,0.001068115234375,-0.110015869140625,-0.345001220703125,0.16845703125,-2.59918212890625,10.1705932617188
54.8001165390015,0.10894775390625,-0.23712158203125,-0.59814453125,1.30645751953125,-1.82830810546875,10.56884765625
54.9000372886658,0.148468017578125,-0.32470703125,-0.70281982421875,0.49713134765625,-1.60400390625,10.5990600585938
55.0006701946259,-0.21575927734375,-0.212554931640625,-1.1407470703125,0.79193115234375,-0.71685791015625,9.70733642578125
55.0998878479004,-0.13458251953125,-0.180511474609375,-1.30416870117188,0.2911376953125,-0.03570556640625,8.60321044921875
55.1999130249023,-0.205078125,-0.122833251953125,-1.28814697265625,1.12518310546875,-0.0714111328125,9.4720458984375
55.3001620769501,-0.299072265625,0.0469970703125,-1.18667602539062,0.73699951171875,0.7745361328125,8.88519287109375
55.3999440670013,-0.38238525390625,-0.005340576171875,-1.04034423828125,0.37261962890625,0.721435546875,9.5635986328125
55.5002458095551,0.001068115234375,0.11749267578125,-0.86944580078125,0.029296875,0.39825439453125,9.71923828125
55.5999109745026,0.133514404296875,0.1239013671875,-0.71990966796875,0.41107177734375,0.60882568359375,10.1248168945312
55.7000002861023,-0.059814453125,0.137786865234375,-0.872650146484375,0.53192138671875,-0.20782470703125,9.85931396484375
55.7997601032257,-0.026702880859375,-0.13885498046875,-0.934600830078125,0.90545654296875,-0.3021240234375,9.5526123046875
55.9022362232208,-0.007476806640625,0.2777099609375,-0.825653076171875,1.14898681640625,-0.32958984375,9.54345703125
56.0007259845734,-0.0726318359375,-0.0213623046875,-1.03713989257812,1.1883544921875,-0.01373291015625,9.609375
56.1000316143036,-0.17303466796875,-0.11962890625,-0.9869384765625,1.4154052734375,0.27374267578125,9.72015380859375
56.200110912323,-0.00213623046875,-0.003204345703125,-0.569305419921875,0.81207275390625,-0.0018310546875,10.3436279296875
56.3001625537872,0.230712890625,-0.16021728515625,-0.14312744140625,0.3900146484375,0.04119873046875,9.83367919921875
56.3998146057129,0.16876220703125,-0.01708984375,-0.08758544921875,-0.6390380859375,0.00274658203125,9.49676513671875
56.5021274089813,-0.14739990234375,-0.060882568359375,-0.12176513671875,0.9979248046875,1.17645263671875,9.7027587890625
56.5998487472534,0.041656494140625,-0.065155029296875,-0.184783935546875,0.435791015625,0.83953857421875,9.0142822265625
56.6999127864838,-0.1495361328125,0.005340576171875,-0.22216796875,0.89447021484375,1.2432861328125,8.73779296875
56.7999250888824,-0.065155029296875,0.01495361328125,-0.3460693359375,0.60150146484375,-0.18585205078125,10.0808715820312
56.899961233139,-0.022430419921875,0.05126953125,-0.33538818359375,0.29571533203125,0.633544921875,9.993896484375
57.0011188983917,-0.035247802734375,0.018157958984375,-0.32684326171875,0.6939697265625,0.39276123046875,10.3756713867188
57.1000709533691,0.073699951171875,0.060882568359375,-0.466766357421875,0.596923828125,-0.7562255859375,9.85015869140625
57.1999163627625,0.043792724609375,-0.159149169921875,-0.753021240234375,0.501708984375,-0.355224609375,9.14154052734375
57.3001384735107,-0.01068115234375,-0.020294189453125,-0.778656005859375,1.55548095703125,0.3607177734375,9.45281982421875
57.4002265930176,-0.22216796875,-0.02349853515625,-0.898284912109375,0.50628662109375,-0.362548828125,10.1669311523438
57.5000600814819,-0.050201416015625,-0.086517333984375,-0.797882080078125,0.62896728515625,0.2783203125,9.42626953125
57.6006901264191,-0.02777099609375,-0.120697021484375,-0.626983642578125,1.56005859375,0.24993896484375,9.22119140625
57.7005951404572,0.054473876953125,-0.14312744140625,-0.48065185546875,1.72943115234375,0.93841552734375,9.35943603515625
57.7997970581055,0.05340576171875,-0.048065185546875,-0.189056396484375,0.83770751953125,0.86334228515625,9.74761962890625
57.9001331329346,-0.0726318359375,-0.157012939453125,-0.150604248046875,0.85601806640625,1.5875244140625,9.82269287109375
58.0002970695496,-0.09185791015625,0.0341796875,-0.1068115234375,0.63629150390625,0.2581787109375,9.400634765625
58.1005966663361,0.018157958984375,0.15380859375,-0.21148681640625,0.76629638671875,1.212158203125,9.34661865234375
58.2002658843994,-0.059814453125,0.0341796875,-0.32470703125,0.16021728515625,0.57037353515625,9.649658203125
58.3000795841217,0.097198486328125,0.043792724609375,-0.383453369140625,0.79742431640625,0.79742431640625,9.1845703125
58.4002771377563,-0.001068115234375,0.118560791015625,-0.41656494140625,0.57952880859375,0.9283447265625,9.46929931640625
58.5005824565887,-0.058746337890625,0.01922607421875,-0.33966064453125,0.13824462890625,0.92742919921875,9.86663818359375
58.5999562740326,0.003204345703125,0.00213623046875,-0.27984619140625,0.7269287109375,0.9906005859375,10.68603515625
58.7000641822815,-0.01922607421875,0.13458251953125,-0.265960693359375,-0.21514892578125,0.084228515625,9.9591064453125
58.8000626564026,0.144195556640625,-0.124969482421875,-0.38238525390625,-0.20233154296875,0.2142333984375,9.35760498046875
58.8998982906342,-0.01068115234375,-0.073699951171875,-0.4656982421875,0.37078857421875,0.54656982421875,9.1900634765625
59.0000429153442,-0.0897216796875,0.0128173828125,-0.51055908203125,0.5694580078125,0.27099609375,9.60113525390625
59.0998997688293,-0.069427490234375,-0.077972412109375,-0.640869140625,0.2325439453125,0.06500244140625,9.847412109375
59.2001583576202,-0.041656494140625,-0.17303466796875,-0.64727783203125,0.3680419921875,0.31494140625,9.93621826171875
59.3002820014954,-0.1153564453125,-0.21575927734375,-0.635528564453125,0.76995849609375,0.72601318359375,9.84100341796875
59.400039434433,-0.112152099609375,-0.054473876953125,-0.61309814453125,0.44403076171875,0.31402587890625,9.80072021484375
59.5001795291901,-0.088653564453125,-0.137786865234375,-0.691070556640625,0.2783203125,0.94390869140625,9.22027587890625
59.5999643802643,0.005340576171875,-0.086517333984375,-0.478515625,0.933837890625,1.45111083984375,8.770751953125
59.6998779773712,-0.043792724609375,0.165557861328125,-0.389862060546875,0.93017578125,1.99310302734375,9.21112060546875
59.8003799915314,0.0042724609375,0.128173828125,-0.257415771484375,0.5914306640625,1.42364501953125,9.620361328125
59.9003562927246,0.05126953125,0.107879638671875,-0.30975341796875,0.2783203125,1.29180908203125,9.70733642578125
59.9999115467072,-0.041656494140625,-0.0299072265625,-0.31402587890625,0.3076171875,1.2451171875,9.98382568359375
60.1001734733582,0.018157958984375,-0.103607177734375,-0.32257080078125,0.01922607421875,0.985107421875,10.2932739257812
60.2022426128387,0.084381103515625,-0.03204345703125,-0.263824462890625,0.50628662109375,1.7523193359375,9.78424072265625
60.2998480796814,0.042724609375,-0.024566650390625,0.1666259765625,0.4815673828125,3.21258544921875,9.57000732421875
60.4002063274384,0.13031005859375,0.11322021484375,0.4144287109375,0.47882080078125,2.537841796875,9.9334716796875
60.4997658729553,0.270233154296875,-0.02349853515625,0.64300537109375,0.07415771484375,1.65435791015625,9.07196044921875
60.6000897884369,0.07904052734375,-0.103607177734375,0.624847412109375,0.0732421875,1.29913330078125,9.09027099609375
60.6999752521515,0.025634765625,-0.04913330078125,0.70068359375,1.41082763671875,1.11053466796875,9.98382568359375
60.7998602390289,-0.00640869140625,0.043792724609375,0.90789794921875,0.8935546875,0.59234619140625,9.9298095703125
60.9012196063995,0.080108642578125,0.0384521484375,1.033935546875,0.9136962890625,1.58203125,9.00054931640625
61.0004150867462,0.020294189453125,0.092926025390625,1.34368896484375,0.8001708984375,1.07666015625,9.638671875
61.0998737812042,0.10467529296875,0.11322021484375,1.7218017578125,0.16021728515625,1.798095703125,9.66339111328125
61.2003128528595,-0.037384033203125,0.25848388671875,1.68441772460938,0.4486083984375,1.2872314453125,9.8529052734375
61.3003361225128,-0.120697021484375,0.005340576171875,1.21337890625,-0.33782958984375,0.92559814453125,9.45831298828125
61.3999085426331,0.11962890625,0.018157958984375,0.9613037109375,1.22589111328125,-0.435791015625,9.42626953125
61.5001640319824,0.139923095703125,0.15167236328125,0.528717041015625,0.4559326171875,-0.0164794921875,9.9517822265625
61.600072145462,0.148468017578125,0.075836181640625,0.263824462890625,0.56488037109375,0.85693359375,9.7833251953125
61.7001421451569,0.04058837890625,0.007476806640625,0.025634765625,0.14739990234375,0.23712158203125,9.90509033203125
61.8003525733948,-0.0128173828125,-0.213623046875,-0.49774169921875,0.281982421875,-1.13433837890625,9.873046875
61.8998510837555,-0.043792724609375,-0.264892578125,-0.8203125,1.39617919921875,0.15472412109375,9.21112060546875
62.0003490447998,-0.2264404296875,0.01922607421875,-0.47637939453125,1.15447998046875,3.42315673828125,9.32281494140625
62.1002507209778,-0.05126953125,0.11749267578125,0.3546142578125,0.56121826171875,2.79327392578125,10.4150390625
62.2007510662079,0.00213623046875,-0.01068115234375,1.07131958007812,1.0455322265625,1.40167236328125,10.5001831054688
62.3021187782288,0.278778076171875,-0.04913330078125,1.53167724609375,0.70953369140625,0.88165283203125,9.283447265625
62.4002196788788,0.4315185546875,0.086517333984375,1.708984375,0.970458984375,0.2178955078125,8.6810302734375
62.500480890274,0.0640869140625,0.14739990234375,1.58721923828125,0.81756591796875,-0.85235595703125,9.4720458984375
62.5997359752655,0.041656494140625,-0.048065185546875,1.42807006835938,1.01531982421875,-0.47882080078125,8.74786376953125
62.7003223896027,0.086517333984375,0.223236083984375,1.04888916015625,1.98577880859375,-1.292724609375,9.18548583984375
62.8000113964081,-0.093994140625,0.368499755859375,0.64727783203125,1.2542724609375,-0.06317138671875,10.5157470703125
62.9008872509003,0.24139404296875,0.413360595703125,0.8203125,0.55755615234375,1.0858154296875,11.3827514648438
63.0000944137573,0.1025390625,0.06195068359375,0.983734130859375,-1.39251708984375,1.248779296875,10.4525756835938
63.1017470359802,0.1708984375,-0.231781005859375,1.22726440429688,-0.95489501953125,1.61590576171875,9.290771484375
63.1999313831329,0.071563720703125,-0.25634765625,1.41525268554688,0.37994384765625,1.23504638671875,8.4979248046875
63.3002605438232,0.278778076171875,-0.0042724609375,1.358642578125,0.42755126953125,1.1663818359375,10.2676391601562
63.4002208709717,0.2178955078125,0.120697021484375,1.54876708984375,-0.07598876953125,0.92742919921875,9.488525390625
63.4999256134033,0.1025390625,-0.052337646484375,1.04354858398438,0.8074951171875,0.15289306640625,9.42169189453125
63.6002466678619,0.240325927734375,0.124969482421875,0.958099365234375,0.65277099609375,1.1077880859375,9.03717041015625
63.7004640102386,0.111083984375,0.103607177734375,0.825653076171875,0.86334228515625,0.66192626953125,9.81536865234375
63.8001124858856,0.069427490234375,0.1324462890625,0.917510986328125,0.2362060546875,-0.05035400390625,9.832763671875
63.8998720645905,-0.1922607421875,0.058746337890625,0.68145751953125,1.4410400390625,0.380859375,9.97283935546875
64.0003535747528,-0.142059326171875,0.08758544921875,0.682525634765625,0.91461181640625,-0.18402099609375,9.898681640625
64.0999708175659,-0.04913330078125,-0.056610107421875,0.641937255859375,0.71319580078125,0.3167724609375,9.6112060546875
64.2003607749939,-0.008544921875,0.0042724609375,0.763702392578125,0.9429931640625,-0.28106689453125,9.62310791015625
64.3007550239563,0.069427490234375,0.020294189453125,0.641937255859375,0.5914306640625,-0.46783447265625,10.0286865234375
64.4017343521118,0.110015869140625,0.028839111328125,0.787200927734375,0.81756591796875,0.362548828125,10.2310180664062
64.5013484954834,-0.01708984375,-0.059814453125,0.623779296875,0.29205322265625,0.85418701171875,10.0140380859375
64.6003594398499,-0.067291259765625,-0.253143310546875,0.622711181640625,0.0018310546875,0.1885986328125,8.76800537109375
64.7001538276672,-0.1409912109375,0.0299072265625,0.507354736328125,1.263427734375,0.1153564453125,9.34478759765625
64.8000764846802,-0.0555419921875,-0.05340576171875,0.298004150390625,0.8551025390625,-0.19500732421875,9.1168212890625
64.9001576900482,0.184783935546875,0.0213623046875,0.05126953125,1.56463623046875,-0.3717041015625,9.70184326171875
65.0007231235504,0.372772216796875,-0.069427490234375,-0.128173828125,1.109619140625,-0.0732421875,9.84832763671875
65.101194858551,0.257415771484375,-0.0469970703125,-0.022430419921875,0.882568359375,0.72509765625,10.0213623046875
65.2000908851624,-0.3033447265625,-0.013885498046875,-0.615234375,1.18011474609375,-0.7818603515625,10.1998901367188
65.300229549408,0.035247802734375,-0.073699951171875,-0.82672119140625,0.90362548828125,-1.5325927734375,9.444580078125
65.399888753891,-0.231781005859375,0.08331298828125,-0.86090087890625,1.8878173828125,-0.52825927734375,8.946533203125
65.5001068115234,-0.195465087890625,-0.00640869140625,-0.992279052734375,1.138916015625,-1.22314453125,9.49310302734375
65.6001460552216,-0.1239013671875,-0.01922607421875,-0.887603759765625,1.0052490234375,-0.81207275390625,9.627685546875
65.7001819610596,-0.142059326171875,0.013885498046875,-0.73272705078125,-0.05950927734375,-0.20416259765625,10.3289794921875
65.8013405799866,-0.321502685546875,-0.2008056640625,-0.86517333984375,0.29296875,-0.6207275390625,10.2420043945312
65.9001171588898,-0.146331787109375,-0.327911376953125,-0.866241455078125,0.2728271484375,-0.33599853515625,9.232177734375
66.0002870559692,-0.162353515625,-0.10467529296875,-0.941009521484375,2.1771240234375,1.24053955078125,9.2816162109375
66.1006252765656,-0.325775146484375,0.20294189453125,-1.0382080078125,0.7745361328125,0.3863525390625,9.3804931640625
66.2000250816345,-0.210418701171875,0.0213623046875,-0.95062255859375,0.74798583984375,0.2618408203125,9.9554443359375
66.300154209137,-0.065155029296875,-0.0128173828125,-0.802154541015625,1.14990234375,0.1593017578125,10.1788330078125
66.4015092849731,-0.043792724609375,-0.03631591796875,-0.640869140625,0.63629150390625,0.45135498046875,9.583740234375
66.5001666545868,0.039520263671875,-0.039520263671875,-0.500946044921875,0.853271484375,0.64910888671875,9.34295654296875
66.5998349189758,0.06195068359375,0.154876708984375,-0.3375244140625,1.65802001953125,0.64361572265625,10.1687622070312
66.7003095149994,0.0384521484375,0.041656494140625,-0.362091064453125,0.42755126953125,0.1226806640625,9.88677978515625
66.8001301288605,0.05340576171875,-0.00640869140625,-0.383453369140625,0.76629638671875,0.16204833984375,9.02069091796875
66.9012942314148,-0.043792724609375,0.037384033203125,-0.424041748046875,1.4154052734375,-0.12725830078125,9.38690185546875
67.0002026557922,-0.068359375,0.124969482421875,-0.485992431640625,1.30828857421875,-0.40740966796875,9.63409423828125
67.1001834869385,-0.28839111328125,0.0469970703125,-0.688934326171875,1.04827880859375,-0.37811279296875,9.66064453125
67.2001807689667,-0.161285400390625,-0.001068115234375,-0.552215576171875,0.8917236328125,-0.6207275390625,9.61395263671875
67.3003323078156,-0.27130126953125,-0.008544921875,-0.639801025390625,0.66009521484375,-0.97412109375,9.796142578125
67.400007724762,-0.10894775390625,-0.07049560546875,-0.60882568359375,0.65277099609375,-0.86151123046875,10.3775024414062
67.4997136592865,-0.009613037109375,-0.184783935546875,-0.5682373046875,0.5584716796875,-0.53924560546875,10.2255249023438
67.6000218391418,-0.19866943359375,-0.14312744140625,-0.607757568359375,1.23870849609375,0.46966552734375,9.30084228515625
67.7009515762329,-0.336456298828125,-0.18798828125,-0.76904296875,1.190185546875,-0.31768798828125,9.0234375
67.8002445697784,-0.077972412109375,-0.001068115234375,-0.64727783203125,1.85394287109375,0.1409912109375,9.254150390625
67.9000947475433,-0.150604248046875,0.073699951171875,-0.569305419921875,1.40350341796875,0.34332275390625,9.312744140625
68.0000820159912,-0.05767822265625,0.230712890625,-0.562896728515625,1.552734375,0.428466796875,9.019775390625
68.1003935337067,-0.07904052734375,0.1025390625,-0.498809814453125,1.03271484375,0.19500732421875,9.52972412109375
68.2008626461029,0.20294189453125,0.148468017578125,-0.216827392578125,0.97412109375,0.2252197265625,10.2264404296875
68.2999517917633,0.212554931640625,-0.020294189453125,-0.26275634765625,0.4376220703125,-0.03204345703125,10.4205322265625
68.3999273777008,0.092926025390625,0.02777099609375,-0.406951904296875,1.1407470703125,-0.677490234375,10.2960205078125
68.4999396800995,0.071563720703125,-0.19866943359375,-0.590667724609375,0.48065185546875,-1.1590576171875,9.254150390625
68.6001899242401,0.07049560546875,0.073699951171875,-0.372772216796875,2.33551025390625,0.303955078125,9.1552734375
68.6998443603516,-0.0811767578125,0.19439697265625,-0.396270751953125,0.8917236328125,-0.20050048828125,9.4573974609375
68.8004019260406,-0.063018798828125,0.043792724609375,-0.368499755859375,1.1114501953125,-0.0970458984375,9.33837890625
68.9001061916351,-0.199737548828125,0.02777099609375,-0.3631591796875,1.483154296875,-0.391845703125,9.609375
69.0001187324524,0.067291259765625,-0.065155029296875,-0.25634765625,0.5767822265625,-0.501708984375,10.279541015625
69.1004929542542,0.03631591796875,-0.127105712890625,-0.16021728515625,1.40350341796875,0.6573486328125,10.3646850585938
69.2020344734192,-0.01708984375,-0.0982666015625,-0.099334716796875,-0.00274658203125,0.38909912109375,9.8272705078125
69.3005383014679,-0.01495361328125,-0.242462158203125,-0.1239013671875,0.28564453125,0.179443359375,9.09210205078125
69.4009273052216,0.09185791015625,0.0555419921875,-0.101470947265625,1.9573974609375,0.4962158203125,9.42535400390625
69.5003116130829,-0.025634765625,0.08331298828125,-0.127105712890625,0.6610107421875,0.76446533203125,9.4207763671875
69.5999965667725,-0.048065185546875,0.059814453125,-0.204010009765625,1.1297607421875,0.73974609375,9.22943115234375
69.7001140117645,-0.099334716796875,0.063018798828125,-0.182647705078125,0.9906005859375,0.80108642578125,9.44915771484375
69.8000223636627,-0.0555419921875,-0.01068115234375,-0.196533203125,0.80841064453125,0.4376220703125,9.88494873046875
69.9003853797913,0.063018798828125,-0.06195068359375,-0.2734375,0.81939697265625,0.428466796875,9.8895263671875
70.0000603199005,-0.04486083984375,0.00640869140625,-0.46783447265625,0.79010009765625,0.01556396484375,9.78973388671875
70.1005733013153,0.0341796875,-0.086517333984375,-0.555419921875,0.75164794921875,-0.21148681640625,9.6954345703125
70.2003226280212,-0.04486083984375,-0.060882568359375,-0.45074462890625,1.30096435546875,0.37078857421875,9.1790771484375
70.3001849651337,-0.07049560546875,0.060882568359375,-0.477447509765625,1.85577392578125,-0.27008056640625,9.6551513671875
70.4005496501923,-0.11322021484375,0.003204345703125,-0.644073486328125,1.0693359375,-0.531005859375,9.7869873046875
70.5015647411346,-0.10894775390625,-0.0341796875,-0.584259033203125,0.82489013671875,0.03387451171875,9.50592041015625
70.6002590656281,-0.259552001953125,-0.022430419921875,-0.710296630859375,1.43646240234375,-0.1409912109375,9.46746826171875
70.7002635002136,-0.111083984375,-0.0213623046875,-0.667572021484375,0.93292236328125,-0.062255859375,10.0332641601562
70.8003218173981,-0.069427490234375,-0.035247802734375,-0.69000244140625,0.8624267578125,0.5950927734375,10.6100463867188
70.9007818698883,-0.162353515625,-0.111083984375,-0.63232421875,0.5841064453125,0.90545654296875,9.6807861328125
70.999894618988,-0.042724609375,-0.18798828125,-0.605621337890625,0.574951171875,0.16387939453125,8.7432861328125
71.1001777648926,-0.11322021484375,0.056610107421875,-0.52337646484375,2.36480712890625,1.29730224609375,9.23583984375
71.200213432312,-0.13031005859375,0.157012939453125,-0.291595458984375,0.99151611328125,1.212158203125,9.4866943359375
71.300398349762,-0.1153564453125,0.10040283203125,-0.107879638671875,0.933837890625,1.1590576171875,9.312744140625
71.3999722003937,0.086517333984375,0.080108642578125,-0.095062255859375,1.2322998046875,0.17578125,9.71923828125
71.4998905658722,0.154876708984375,0.056610107421875,-0.067291259765625,0.46600341796875,0.17578125,9.98931884765625
71.600081205368,-0.0042724609375,0.0811767578125,-0.022430419921875,0.53741455078125,-0.1593017578125,10.1715087890625
71.6998891830444,0.0213623046875,-0.110015869140625,-0.2734375,0.655517578125,-0.6866455078125,9.45465087890625
71.80024766922,-0.092926025390625,0.056610107421875,-0.299072265625,1.56097412109375,0.00457763671875,9.22760009765625
71.9024455547333,-0.084381103515625,0.1922607421875,-0.283050537109375,0.69488525390625,-0.809326171875,9.63775634765625
72.0002262592316,-0.077972412109375,0.039520263671875,-0.27130126953125,0.450439453125,-0.4229736328125,9.55078125
72.099892616272,0.09185791015625,0.067291259765625,-0.300140380859375,0.80841064453125,-1.1993408203125,10.3857421875
72.2006995677948,0.058746337890625,0.028839111328125,-0.246734619140625,0.04852294921875,0.22064208984375,10.0955200195312
72.2997887134552,-0.174102783203125,-0.059814453125,-0.308685302734375,-0.27008056640625,0.2728271484375,9.9224853515625
72.399829864502,0.08544921875,-0.018157958984375,-0.379180908203125,0.13275146484375,0.00823974609375,9.65972900390625
72.499858379364,0.003204345703125,-0.043792724609375,-0.312957763671875,-0.10345458984375,1.4923095703125,9.2724609375
72.5998184680939,0.013885498046875,0.01922607421875,-0.12176513671875,-0.4925537109375,0.9246826171875,9.64141845703125
72.7001423835754,0.095062255859375,0.076904296875,-0.139923095703125,0.2691650390625,0.83770751953125,9.63958740234375
72.8001930713654,0.068359375,0.08331298828125,-0.01495361328125,0.135498046875,1.38885498046875,9.45098876953125
72.8998391628265,-0.022430419921875,0.05126953125,-0.069427490234375,-0.457763671875,1.4923095703125,9.53155517578125
73.0012958049774,0.163421630859375,-0.00213623046875,0.231781005859375,-0.34881591796875,1.22589111328125,10.3958129882812
73.1002268791199,-0.0555419921875,-0.088653564453125,0.263824462890625,0.0933837890625,1.91436767578125,9.89227294921875
73.2010018825531,-0.0042724609375,-0.21575927734375,0.435791015625,-0.09429931640625,0.714111328125,9.43359375
73.2999563217163,0.145263671875,-0.122833251953125,0.71136474609375,0.2874755859375,0.76629638671875,9.364013671875
73.3999910354614,0.08331298828125,-0.08544921875,0.810699462890625,1.03271484375,0.4119873046875,9.55352783203125
73.5001792907715,-0.0042724609375,0.058746337890625,0.774383544921875,0.6427001953125,0.25360107421875,9.5672607421875
73.5998945236206,0.0384521484375,-0.073699951171875,0.842742919921875,0.2801513671875,0.02838134765625,9.41986083984375
73.7002940177917,0.178375244140625,0.0811767578125,0.8673095703125,1.32476806640625,-0.2252197265625,10.440673828125
73.8002302646637,0.340728759765625,-0.052337646484375,0.911102294921875,0.3515625,-0.39093017578125,10.4745483398438
73.9006645679474,0.298004150390625,0.063018798828125,1.30630493164062,0.4742431640625,0.311279296875,10.1788330078125
73.9999532699585,-0.206146240234375,0.39306640625,0.723114013671875,1.44378662109375,0.3790283203125,8.96759033203125
74.1007454395294,0.196533203125,0.353546142578125,0.966644287109375,0.48614501953125,0.0439453125,9.93804931640625
74.1998906135559,-0.095062255859375,0.39093017578125,0.776519775390625,1.79168701171875,0.7763671875,9.55902099609375
74.3001790046692,-0.056610107421875,-0.199737548828125,-0.671844482421875,0.71868896484375,0.78094482421875,9.07745361328125
74.4004447460175,-0.163421630859375,-0.52337646484375,-0.52978515625,0.24261474609375,1.64337158203125,9.24591064453125
74.5001153945923,-0.020294189453125,-0.473175048828125,-0.381317138671875,1.094970703125,0.80291748046875,9.43817138671875
74.6008620262146,-0.35675048828125,-1.36611938476562,-0.76904296875,0.74432373046875,1.1370849609375,9.5123291015625
74.70001745224,-0.733795166015625,-1.34048461914062,-0.827789306640625,3.5467529296875,1.6094970703125,9.0234375
74.8007822036743,-0.3973388671875,-1.17813110351562,-0.334320068359375,4.3084716796875,0.205078125,8.75244140625
74.9006028175354,0.496673583984375,-0.5682373046875,0.74554443359375,5.14251708984375,-0.39276123046875,7.646484375
75.0001201629639,1.30523681640625,0.479583740234375,1.30523681640625,5.55633544921875,-0.791015625,8.170166015625
75.100293636322,1.43234252929688,1.17279052734375,2.09671020507812,3.8690185546875,1.99676513671875,8.17657470703125
75.2004222869873,0.54046630859375,0.994415283203125,1.52099609375,2.8070068359375,1.77978515625,8.7542724609375
75.3004193305969,0.605621337890625,1.75491333007812,2.34878540039062,0.21148681640625,1.23046875,9.63958740234375
75.3999421596527,-0.323638916015625,0.97625732421875,0.714569091796875,-0.22796630859375,1.5509033203125,9.6661376953125
75.4998383522034,-0.174102783203125,0.953826904296875,0.897216796875,-1.512451171875,0.35614013671875,10.0167846679688
75.6002743244171,-0.291595458984375,0.0384521484375,0.32470703125,-1.84844970703125,0.3643798828125,9.75494384765625
75.7001857757568,-0.2435302734375,-0.316162109375,0.379180908203125,-1.5545654296875,0.4779052734375,9.34478759765625
75.8002271652222,-0.193328857421875,-0.4656982421875,0.24566650390625,-0.633544921875,-0.0091552734375,9.51141357421875
75.9002866744995,-0.1068115234375,-0.240325927734375,0.7220458984375,-0.076904296875,-0.0494384765625,9.404296875
76.0002982616425,0.095062255859375,-0.205078125,0.95489501953125,-0.692138671875,-0.9136962890625,9.74853515625
76.1014776229858,-0.231781005859375,-0.40802001953125,0.673980712890625,0.44586181640625,-0.25726318359375,9.638671875
76.2001276016235,-0.178375244140625,-0.68359375,0.6280517578125,-0.61248779296875,-1.14349365234375,10.3207397460938
76.3014163970947,-0.157012939453125,-0.931396484375,0.477447509765625,1.3330078125,-0.72418212890625,9.254150390625
76.3998851776123,0.092926025390625,-0.2862548828125,0.808563232421875,2.48931884765625,-1.4208984375,9.35943603515625
76.5003628730774,0.41229248046875,0.01922607421875,1.09909057617188,1.64886474609375,-2.178955078125,9.7320556640625
76.5999467372894,0.4656982421875,0.19866943359375,1.30630493164062,1.1846923828125,-1.64154052734375,9.6917724609375
76.7001421451569,0.25634765625,0.1068115234375,1.32339477539062,1.31195068359375,-0.72235107421875,9.473876953125
76.7998688220978,0.15380859375,-0.082244873046875,1.07025146484375,1.67083740234375,-0.81756591796875,9.65606689453125
76.8998987674713,0.080108642578125,0.033111572265625,0.958099365234375,1.58111572265625,-0.86883544921875,9.13421630859375
77.0005145072937,-0.063018798828125,0.19012451171875,0.9271240234375,1.234130859375,-1.60125732421875,9.6697998046875
77.1001636981964,0.04058837890625,-0.005340576171875,0.8587646484375,1.01715087890625,-0.63446044921875,9.44183349609375
77.2013182640076,0.09613037109375,-0.016021728515625,0.684661865234375,0.94940185546875,-0.721435546875,9.1351318359375
77.3002078533173,-0.02777099609375,-0.178375244140625,0.673980712890625,0.9320068359375,-1.1920166015625,9.62310791015625
77.4007534980774,0.4315185546875,-0.236053466796875,-0.0640869140625,0.531005859375,-2.8033447265625,10.982666015625
77.5002164840698,-0.01708984375,-0.0982666015625,-0.128173828125,1.05194091796875,1.9244384765625,8.60687255859375
77.6000111103058,0.0341796875,-0.150604248046875,-0.042724609375,0.50537109375,0.25909423828125,9.44549560546875
77.701094865799,-0.32470703125,-0.42724609375,-0.2093505859375,1.43646240234375,-0.28289794921875,9.8492431640625
77.8000392913818,-0.05767822265625,-0.753021240234375,-0.55328369140625,1.25335693359375,-2.19268798828125,9.8382568359375
77.8999145030975,0.1922607421875,-0.415496826171875,0.056610107421875,3.71246337890625,-0.91461181640625,8.56658935546875
78.0001442432404,0.58746337890625,0.084381103515625,1.00189208984375,2.4517822265625,-1.61407470703125,9.69451904296875
78.0999281406403,0.9014892578125,0.112152099609375,1.55303955078125,2.7264404296875,-0.2728271484375,8.70025634765625
78.2001640796661,0.415496826171875,0.49774169921875,1.61285400390625,2.53875732421875,0.992431640625,8.4320068359375
78.3001608848572,0.63232421875,0.300140380859375,1.3031005859375,3.6199951171875,-0.55023193359375,9.4207763671875
78.3999166488647,0.515899658203125,0.67291259765625,1.546630859375,2.57904052734375,-0.41015625,10.1669311523438
78.5026571750641,0.069427490234375,0.36956787109375,1.20590209960938,1.60858154296875,1.32476806640625,9.6533203125
78.6000125408173,0.08758544921875,0.2691650390625,1.16851806640625,-0.07598876953125,0.626220703125,9.6588134765625
78.7001059055328,0.1025390625,0.018157958984375,1.28494262695312,0.99884033203125,0.85693359375,8.924560546875
78.7998378276825,0.063018798828125,0.10040283203125,0.970916748046875,-0.04119873046875,-0.57220458984375,9.99847412109375
78.9000799655914,0.389862060546875,0.144195556640625,0.87799072265625,-0.06866455078125,-0.347900390625,9.98565673828125
79.0000348091125,0.0469970703125,-0.01708984375,0.22857666015625,0.57769775390625,0.03204345703125,9.72381591796875
79.1009614467621,0.059814453125,-0.024566650390625,0.11322021484375,-0.7177734375,-0.24993896484375,10.6411743164062
79.200528383255,0.0299072265625,-0.26275634765625,-0.0128173828125,2.255859375,0.1739501953125,10.2108764648438
79.2999448776245,-0.139923095703125,-0.384521484375,-0.13031005859375,0.43853759765625,-0.5126953125,8.52264404296875
79.4005227088928,-0.2349853515625,-0.299072265625,0.159149169921875,2.376708984375,-0.18035888671875,9.40887451171875
79.500146150589,-0.53619384765625,-0.33538818359375,-0.007476806640625,1.32293701171875,-1.44012451171875,9.404296875
79.6000282764435,-0.011749267578125,-0.05767822265625,0.29266357421875,2.69439697265625,-1.534423828125,9.0472412109375
79.6999495029449,0.1409912109375,0.2862548828125,0.49774169921875,1.3275146484375,-0.8880615234375,9.1534423828125
79.7999093532562,0.013885498046875,0.077972412109375,0.624847412109375,0.3643798828125,-0.68206787109375,10.0579833984375
79.9016108512878,0.20294189453125,-0.04486083984375,0.794677734375,0.92559814453125,-0.60791015625,10.5148315429688
79.9999468326569,0.590667724609375,0.157012939453125,1.13540649414062,0.9283447265625,0.8880615234375,9.1552734375
80.100191116333,0.05767822265625,-0.025634765625,0.58319091796875,1.0382080078125,0.0677490234375,9.51416015625
80.200665473938,-0.0726318359375,-0.06622314453125,0.205078125,1.24786376953125,-0.0439453125,9.693603515625
80.3001465797424,-0.008544921875,-0.08758544921875,0.509490966796875,-0.34698486328125,0.36163330078125,9.16168212890625
80.3997609615326,0,0.060882568359375,0.530853271484375,1.5948486328125,0.57403564453125,9.7265625
80.5000803470612,-0.0128173828125,0.060882568359375,0.558624267578125,0.19775390625,0.09063720703125,10.1797485351562
80.6001915931702,0.03204345703125,-0.213623046875,0.718841552734375,-0.73516845703125,0.2911376953125,10.33447265625
80.6998429298401,0.0555419921875,-0.186920166015625,0.673980712890625,2.362060546875,0.44036865234375,9.32098388671875
80.8003630638123,-0.0042724609375,-0.212554931640625,0.6451416015625,0.22796630859375,-0.24993896484375,9.03533935546875
80.8999524116516,0.204010009765625,-0.07049560546875,0.699615478515625,0.76995849609375,-0.33966064453125,9.4573974609375
81.0007305145264,0.165557861328125,-0.04486083984375,0.6707763671875,1.5142822265625,-0.552978515625,9.38232421875
81.1000115871429,0.16876220703125,0.129241943359375,0.76904296875,0.845947265625,-1.65802001953125,10.0827026367188
81.1999981403351,0.2008056640625,0.02349853515625,0.712432861328125,0.77362060546875,-0.45684814453125,9.580078125
81.3008992671967,-0.011749267578125,-0.030975341796875,0.79681396484375,0.87249755859375,-0.14190673828125,9.12139892578125
81.4008407592773,-0.04486083984375,-0.112152099609375,0.718841552734375,1.190185546875,-0.4266357421875,9.5361328125
81.5005393028259,-0.028839111328125,-0.0555419921875,0.7476806640625,1.51519775390625,-0.18402099609375,10.1312255859375
81.6002404689789,-0.041656494140625,-0.341796875,0.43792724609375,1.2506103515625,-0.8551025390625,9.81353759765625
81.7000105381012,0.103607177734375,-0.163421630859375,0.726318359375,2.05810546875,-0.18951416015625,8.82568359375
81.8000063896179,0.02349853515625,-0.011749267578125,0.716705322265625,1.12152099609375,-0.31402587890625,9.05181884765625
81.9003114700317,0.21148681640625,-0.13031005859375,0.82244873046875,1.53350830078125,-0.50628662109375,9.72747802734375
82.0000491142273,0.350341796875,-0.0213623046875,0.8587646484375,1.1883544921875,-0.18310546875,9.66888427734375
82.1000442504883,0.17730712890625,-0.013885498046875,0.635528564453125,1.7742919921875,0.24444580078125,9.13604736328125
82.1999399662018,0.007476806640625,0.03204345703125,0.418701171875,1.3037109375,-0.2362060546875,9.87213134765625
82.3002333641052,-0.093994140625,-0.09185791015625,0.58319091796875,0.83953857421875,0.3936767578125,10.235595703125
82.3998725414276,0.135650634765625,-0.039520263671875,0.639801025390625,0.8624267578125,-0.6884765625,9.8052978515625
82.4998679161072,0.265960693359375,-0.10040283203125,0.74981689453125,1.39434814453125,-0.56854248046875,9.41162109375
82.5997910499573,0.323638916015625,0.02777099609375,0.708160400390625,1.24969482421875,-0.23895263671875,9.35028076171875
82.6997663974762,0.26275634765625,0.059814453125,0.761566162109375,0.9246826171875,-0.73333740234375,9.569091796875
82.8001508712769,0.39093017578125,0.1580810546875,0.735931396484375,2.05535888671875,-0.6207275390625,10.0003051757812
82.9001548290253,0.127105712890625,0.001068115234375,0.615234375,0.941162109375,0.32501220703125,9.57275390625
83.0000431537628,0.17730712890625,-0.05767822265625,0.9356689453125,1.0235595703125,-0.01556396484375,8.96759033203125
83.1003272533417,0.008544921875,0.013885498046875,0.904693603515625,0.18310546875,-0.30670166015625,10.0103759765625
83.2000494003296,-0.037384033203125,-0.150604248046875,1.16531372070312,1.07940673828125,-0.21881103515625,10.3390502929688
83.2998554706573,0.068359375,-0.0811767578125,0.7989501953125,0.948486328125,-0.99609375,10.0286865234375
83.4001021385193,0.161285400390625,-0.0469970703125,0.682525634765625,1.59576416015625,0.281982421875,8.807373046875
83.5004134178162,0.317230224609375,0.018157958984375,0.6964111328125,1.7083740234375,-0.205078125,9.2779541015625
83.6003129482269,0.298004150390625,0.247802734375,0.73699951171875,1.56280517578125,-0.2655029296875,10.3216552734375
83.7001147270203,0.359954833984375,0.244598388671875,1.02645874023438,0.47882080078125,1.21673583984375,9.7833251953125
83.8005781173706,0.2947998046875,0.020294189453125,0.661163330078125,0.2325439453125,1.300048828125,9.37957763671875
83.899834394455,0.178375244140625,-0.0042724609375,0.46356201171875,0.52825927734375,0.92010498046875,9.28802490234375
83.9998767375946,-0.0384521484375,0.210418701171875,0.063018798828125,0.62347412109375,0.8404541015625,9.00238037109375
84.1003594398499,-0.0299072265625,0.10040283203125,-0.334320068359375,1.409912109375,-0.2325439453125,10.5047607421875
84.2010717391968,0.1324462890625,0.13458251953125,-0.161285400390625,-0.46234130859375,-0.3900146484375,9.8968505859375
84.301745891571,0.022430419921875,0.069427490234375,0.00640869140625,0.18035888671875,0.52276611328125,9.364013671875
84.4001793861389,-0.04486083984375,0.04058837890625,0.124969482421875,0.13275146484375,0.55572509765625,9.32647705078125
84.4999423027039,0.124969482421875,0.15380859375,0.127105712890625,0.99334716796875,-0.07598876953125,9.96185302734375
84.6008288860321,0.037384033203125,-0.030975341796875,-0.069427490234375,-0.01373291015625,0.1885986328125,9.94171142578125
84.7002255916595,0.01708984375,-0.10040283203125,-0.0213623046875,0.230712890625,1.10595703125,9.8272705078125
84.7999868392944,-0.05767822265625,0.095062255859375,0.00213623046875,-0.238037109375,-0.1043701171875,10.1458740234375
84.9002077579498,0.035247802734375,0.0811767578125,0.073699951171875,0.08697509765625,-0.4486083984375,10.330810546875
84.9998571872711,-0.11962890625,-0.09185791015625,-0.161285400390625,-0.26092529296875,0.4486083984375,9.52423095703125
85.1002740859985,0.0128173828125,-0.008544921875,0.04913330078125,-0.20050048828125,0.44677734375,9.09393310546875
85.2000877857208,-0.071563720703125,-0.0341796875,-0.06195068359375,0.02197265625,0.3936767578125,9.7833251953125
85.2998819351196,0.05340576171875,0.035247802734375,-0.18798828125,0.32867431640625,0.34515380859375,10.4095458984375
85.3998968601227,0.011749267578125,-0.037384033203125,-0.180511474609375,-0.2471923828125,0.8551025390625,10.1925659179688
85.5003507137299,0.142059326171875,-0.001068115234375,0.161285400390625,-0.12359619140625,0.39825439453125,9.1241455078125
85.6000485420227,0.020294189453125,0.10894775390625,0.048065185546875,0.2362060546875,0.98876953125,9.0966796875
85.7004981040955,0.278778076171875,0.184783935546875,-0.022430419921875,0.662841796875,0.216064453125,10.1669311523438
85.8004224300385,-0.050201416015625,0.11749267578125,-0.169830322265625,-0.09613037109375,1.4410400390625,9.2852783203125
85.9003083705902,-0.022430419921875,0.142059326171875,0.1068115234375,-0.00457763671875,1.13433837890625,9.13238525390625
86.0010054111481,0.11962890625,0.04058837890625,0.255279541015625,-0.68206787109375,0.274658203125,9.76409912109375
86.0998916625977,0.21575927734375,0.218963623046875,0.3460693359375,-0.9063720703125,0.72784423828125,9.4903564453125
86.2019357681274,0.11749267578125,0.14739990234375,0.07904052734375,-0.52825927734375,1.27166748046875,10.5816650390625
86.3004913330078,0.263824462890625,0.067291259765625,-0.212554931640625,-2.26593017578125,0.98968505859375,10.1266479492188
86.4006612300873,0.287322998046875,0.09185791015625,-0.259552001953125,-0.596923828125,2.149658203125,9.239501953125
86.5003294944763,-0.212554931640625,-0.0341796875,-0.0042724609375,-1.46484375,1.812744140625,9.54803466796875
86.5998523235321,-0.1666259765625,-0.163421630859375,0.0640869140625,-1.22772216796875,1.17919921875,9.77691650390625
86.7005772590637,-0.261688232421875,0.06195068359375,0.16448974609375,-0.93017578125,1.81365966796875,9.37957763671875
86.8002381324768,-0.05126953125,-0.059814453125,0.030975341796875,-1.2176513671875,0.97412109375,9.488525390625
86.9004893302917,-0.025634765625,0.105743408203125,0.2349853515625,-1.10870361328125,1.41265869140625,9.25323486328125
87.0004374980927,-0.03204345703125,0.162353515625,0.353546142578125,-1.15997314453125,1.0125732421875,9.7869873046875
87.1000680923462,0.05340576171875,0.150604248046875,0.438995361328125,-1.8621826171875,1.2689208984375,10.1605224609375
87.2018146514893,-0.058746337890625,0.082244873046875,0.07904052734375,-1.85211181640625,1.49322509765625,9.67987060546875
87.3007509708405,-0.13885498046875,-0.090789794921875,0.033111572265625,-1.9317626953125,1.47125244140625,9.415283203125
87.4009294509888,-0.15167236328125,0.07476806640625,0.4315185546875,-0.16021728515625,0.9429931640625,9.62860107421875
87.5003209114075,0.06622314453125,-0.08331298828125,-0.107879638671875,-0.47698974609375,0.7708740234375,10.0515747070312
87.5999889373779,-0.043792724609375,0.048065185546875,-0.116424560546875,-0.56671142578125,1.28997802734375,9.69818115234375
87.7002668380737,-0.225372314453125,0.2093505859375,-0.163421630859375,-1.025390625,1.376953125,9.81353759765625
87.8000335693359,-0.46783447265625,0.03204345703125,-0.048065185546875,-2.02606201171875,2.24395751953125,9.33837890625
87.8999421596527,-0.07049560546875,-0.082244873046875,-0.037384033203125,-1.13433837890625,1.69189453125,8.602294921875
87.9998090267181,0.054473876953125,0.227508544921875,0.191192626953125,-0.10162353515625,1.74041748046875,8.44024658203125
88.0998666286469,-0.011749267578125,-0.3118896484375,-0.122833251953125,-0.53924560546875,0.95672607421875,9.17816162109375
88.1998784542084,-0.496673583984375,0.4656982421875,0.614166259765625,-2.2906494140625,-0.9100341796875,10.3958129882812
88.3000082969666,-0.35675048828125,0.18157958984375,0.955963134765625,-3.094482421875,-0.04852294921875,9.114990234375
88.3999018669128,-0.782928466796875,-0.008544921875,0.494537353515625,-1.87225341796875,1.03363037109375,8.94744873046875
88.50013256073,-0.327911376953125,-0.12176513671875,0.092926025390625,-0.20050048828125,-0.4248046875,9.06646728515625
88.6004114151001,-0.688934326171875,-0.48919677734375,-0.265960693359375,-1.01806640625,-0.62255859375,8.214111328125
88.7004063129425,0.60028076171875,0.08544921875,-0.28411865234375,-0.11444091796875,-1.4923095703125,8.79913330078125
88.8004405498505,0.19012451171875,-0.347137451171875,-0.74981689453125,-0.457763671875,-1.11602783203125,9.31640625
88.900981426239,0.98052978515625,-0.609893798828125,-0.641937255859375,-1.8017578125,-5.74127197265625,10.4232788085938
89.0003230571747,-0.33966064453125,-0.409088134765625,-1.73782348632812,-2.7520751953125,-5.05828857421875,10.2978515625
89.100013256073,-1.77520751953125,-0.2264404296875,-2.38082885742188,-4.2425537109375,-6.427001953125,10.4443359375
89.2002689838409,-0.66436767578125,0.048065185546875,-3.79074096679688,-7.29766845703125,-6.86279296875,8.87603759765625
89.300831079483,-0.27984619140625,0.688934326171875,-4.36111450195312,-10.4974365234375,-6.01043701171875,8.84307861328125
89.4000918865204,-0.364227294921875,0.845947265625,-5.00091552734375,-14.0185546875,-3.68499755859375,10.8407592773438
89.5009233951569,-0.45928955078125,0.520172119140625,-5.67062377929688,-18.519287109375,-3.11553955078125,9.25872802734375
89.6001825332642,0.456085205078125,0.238189697265625,-6.23779296875,-22.6821899414062,-2.49298095703125,9.19097900390625
89.7003197669983,0.22216796875,0.60028076171875,-6.65863037109375,-26.363525390625,-1.29547119140625,11.092529296875
89.8001186847687,0.042724609375,0.5126953125,-6.31683349609375,-26.9329833984375,0.4193115234375,8.12530517578125
89.9001266956329,0.22430419921875,0.086517333984375,-6.48880004882812,-24.4940185546875,0.479736328125,7.51739501953125
90.000109910965,0.725250244140625,0.05767822265625,-6.54434204101562,-24.2623901367188,1.07025146484375,9.781494140625
90.0999715328217,-0.033111572265625,0.4998779296875,-6.67251586914062,-26.114501953125,1.95556640625,5.55450439453125
90.1999890804291,2.04330444335938,0.5255126953125,-6.70562744140625,-29.6987915039062,-1.71112060546875,13.0343627929688
90.3001527786255,0.98907470703125,-0.7989501953125,-6.84982299804688,-29.5138549804688,0.2252197265625,7.84881591796875
90.3997709751129,0.447540283203125,0.063018798828125,-6.99508666992188,-28.4994506835938,3.779296875,6.25946044921875
90.5000824928284,0.70709228515625,0.504150390625,-6.76223754882812,-28.13232421875,-0.93109130859375,9.6441650390625
90.600145816803,0.631256103515625,-0.38665771484375,-7.03353881835938,NaN,1.17919921875,9.95361328125
90.7001249790192,-0.650482177734375,-0.145263671875,-7.083740234375,NaN,4.51263427734375,8.41094970703125
90.7998101711273,1.34689331054688,0.921783447265625,-6.04232788085938,-27.0529174804688,7.7435302734375,7.31689453125
90.9008448123932,0.770111083984375,0.03631591796875,-5.460205078125,-18.2052612304688,8.61053466796875,12.1481323242188
90.9997503757477,0.19866943359375,-0.008544921875,-4.29275512695312,-11.5576171875,7.10540771484375,6.85272216796875
91.1000845432281,-0.5682373046875,0.45928955078125,-2.50579833984375,-6.40777587890625,9.591064453125,6.123046875
91.2001583576202,-0.57891845703125,0.103607177734375,-1.55303955078125,-2.63031005859375,6.14044189453125,10.0296020507812
91.300745010376,1.21871948242188,-0.178375244140625,-0.67291259765625,-1.32568359375,4.33685302734375,8.84490966796875
91.4000344276428,0.016021728515625,0.411224365234375,-0.007476806640625,-1.50146484375,3.1951904296875,9.2230224609375
91.500171661377,0.95703125,-0.274505615234375,-0.11962890625,-1.6461181640625,1.98760986328125,9.53521728515625
91.6001808643341,-0.009613037109375,0.21148681640625,-0.15594482421875,-1.29364013671875,2.14141845703125,9.818115234375
91.7007913589478,-0.366363525390625,0.572509765625,-0.21575927734375,-1.98760986328125,1.92718505859375,10.3500366210938
91.7999382019043,-0.49774169921875,0.1837158203125,0.319366455078125,-2.79327392578125,0.8660888671875,9.13787841796875
91.9002633094788,0.372772216796875,-0.240325927734375,0.230712890625,-2.23480224609375,-0.2142333984375,10.8352661132812
91.9999241828918,0.150604248046875,-0.0640869140625,0.193328857421875,-1.78436279296875,0.73333740234375,8.40728759765625
92.099885225296,-0.511627197265625,0.1068115234375,0.0384521484375,-2.40325927734375,1.39434814453125,8.72772216796875
92.2004218101501,-0.04058837890625,-0.03204345703125,0.144195556640625,-1.97479248046875,1.3348388671875,8.22418212890625
92.3006834983826,0.041656494140625,0.14739990234375,0.054473876953125,-2.3162841796875,0.83953857421875,9.9005126953125
92.4001860618591,-0.18157958984375,0.11749267578125,-0.04913330078125,-2.18170166015625,0.963134765625,9.56634521484375
92.5001349449158,-0.02777099609375,-0.024566650390625,-0.028839111328125,-2.50030517578125,1.0272216796875,10.1971435546875
92.6003186702728,0.144195556640625,-0.0982666015625,-0.04913330078125,-2.34466552734375,0.9173583984375,9.41253662109375
92.7003719806671,0.10040283203125,-0.07476806640625,-0.0469970703125,-2.3272705078125,0.9686279296875,9.28802490234375
92.8005020618439,0.041656494140625,-0.00213623046875,-0.050201416015625,-2.41241455078125,0.8734130859375,9.539794921875
92.9001491069794,-0.035247802734375,-0.0128173828125,-0.0213623046875,-2.49664306640625,0.87249755859375,9.2926025390625
92.9999084472656,-0.048065185546875,-0.035247802734375,-0.04058837890625,-2.43072509765625,0.9027099609375,9.4866943359375
93.1008667945862,-0.065155029296875,-0.025634765625,-0.005340576171875,-2.30072021484375,0.9539794921875,9.46563720703125
93.200065612793,-0.028839111328125,0.05126953125,0.016021728515625,-2.27325439453125,0.87158203125,9.41436767578125
93.3001396656036,-0.0341796875,0.045928955078125,0.00640869140625,-2.11395263671875,0.85784912109375,9.3804931640625
93.4001150131226,0.024566650390625,0.018157958984375,0.0299072265625,-2.3785400390625,0.86334228515625,9.561767578125
93.5000262260437,0.1025390625,0.007476806640625,0.03631591796875,-2.30712890625,0.72235107421875,9.1827392578125
93.6002614498138,-0.093994140625,0.0726318359375,-0.013885498046875,-2.3822021484375,0.80841064453125,9.283447265625
93.7002477645874,-0.01708984375,0.075836181640625,-0.01068115234375,-2.54150390625,0.79193115234375,9.580078125
93.7999610900879,-0.00640869140625,0.063018798828125,-0.04486083984375,-2.4517822265625,0.81024169921875,9.290771484375
93.9005453586578,0.00213623046875,0.00640869140625,-0.054473876953125,-2.5726318359375,0.831298828125,9.53521728515625
94.0002858638763,0.035247802734375,-0.00640869140625,-0.068359375,-2.61383056640625,0.9832763671875,9.36309814453125
94.1001341342926,-0.011749267578125,0.00213623046875,-0.06622314453125,-2.54974365234375,0.93841552734375,9.404296875
94.1999969482422,-0.060882568359375,0.02349853515625,-0.0469970703125,-2.4810791015625,0.88165283203125,9.07562255859375
94.3003087043762,-0.005340576171875,-0.007476806640625,-0.02349853515625,-2.61199951171875,0.88897705078125,9.591064453125
94.3998563289642,-0.050201416015625,0.030975341796875,0.0213623046875,-2.6788330078125,0.8587646484375,9.3731689453125
94.4998981952667,0.054473876953125,-0.001068115234375,0.02349853515625,-2.64678955078125,0.96771240234375,9.50592041015625
94.5999763011932,-0.04486083984375,0.076904296875,0.039520263671875,-2.76947021484375,1.09588623046875,9.8052978515625
94.7003915309906,-0.481719970703125,-0.1837158203125,0.229644775390625,-2.4627685546875,1.46484375,10.0177001953125
94.800154209137,-0.350341796875,-0.035247802734375,0.24566650390625,-1.439208984375,0.0640869140625,8.4576416015625
94.9009435176849,-0.045928955078125,-0.112152099609375,0.07904052734375,-0.06866455078125,-0.0823974609375,9.00970458984375
94.999828338623,0.2520751953125,0.184783935546875,-0.518035888671875,-1.40625,-2.5543212890625,9.473876953125
95.0998909473419,0.191192626953125,-0.082244873046875,-2.4993896484375,-6.0260009765625,-11.6006469726562,10.4598999023438
95.2002184391022,1.41525268554688,-1.1279296875,-3.9605712890625,-15.0357055664062,-10.14404296875,10.72998046875
95.300103187561,-0.535125732421875,-0.8074951171875,-5.8917236328125,-23.26171875,-8.99871826171875,6.91131591796875
95.4000339508057,0.124969482421875,-0.035247802734375,-6.97265625,-29.5779418945312,-3.6639404296875,7.276611328125
95.499908208847,0.080108642578125,0.033111572265625,-7.451171875,NaN,4.07958984375,5.16998291015625
95.6004519462585,0.847015380859375,0.428314208984375,-7.51312255859375,NaN,5.00335693359375,7.26104736328125
95.6998772621155,0.488128662109375,0.424041748046875,-7.39242553710938,NaN,4.6343994140625,8.7835693359375
95.8000683784485,0.584259033203125,0.3973388671875,-6.99295043945312,-28.9352416992188,4.185791015625,7.72613525390625
95.9010758399963,1.2603759765625,-0.34393310546875,-6.70455932617188,-28.6578369140625,1.40716552734375,6.11480712890625
95.9998977184296,1.025390625,-0.030975341796875,-6.93527221679688,-28.9663696289062,0.6207275390625,5.55908203125
96.1001164913177,1.36184692382812,-0.0341796875,-7.14248657226562,NaN,1.36688232421875,8.5052490234375
96.2002651691437,-1.1578369140625,0.067291259765625,-7.493896484375,NaN,1.92626953125,6.9305419921875
96.3001754283905,0.93780517578125,0.948486328125,-7.50457763671875,NaN,6.59088134765625,4.23248291015625
96.3999109268188,1.77093505859375,0.0982666015625,-6.67251586914062,-29.7491455078125,6.74285888671875,12.5592041015625
96.5005300045013,0.39947509765625,-0.6793212890625,-6.36917114257812,-24.42626953125,4.93377685546875,7.745361328125
96.6001515388489,0.70709228515625,-0.330047607421875,-6.28692626953125,-21.573486328125,0.9649658203125,2.07275390625
96.7000222206116,-0.0299072265625,0.31402587890625,-6.16195678710938,-24.0069580078125,-0.14739990234375,8.6993408203125
96.8013100624084,1.13861083984375,-0.238189697265625,-6.35528564453125,-23.9547729492188,1.02813720703125,10.7830810546875
96.9002804756165,0.103607177734375,-0.372772216796875,-6.41830444335938,-26.1630249023438,5.99761962890625,9.4683837890625
97.0000758171082,0.176239013671875,-0.179443359375,-5.90560913085938,-22.174072265625,9.5782470703125,6.47369384765625
97.100061416626,1.21444702148438,0.255279541015625,-4.913330078125,-14.3746948242188,7.56683349609375,9.8602294921875
97.1998891830444,0.89508056640625,-0.755157470703125,-5.03829956054688,-14.4744873046875,-0.5859375,8.1317138671875
97.2998509407043,-0.795745849609375,-0.605621337890625,-4.87167358398438,-13.7319946289062,-0.8038330078125,8.660888671875
97.4004805088043,-0.47637939453125,0.144195556640625,-4.27352905273438,-9.86297607421875,3.02581787109375,10.4946899414062
97.5005662441254,-0.15167236328125,-0.095062255859375,-3.91143798828125,-7.9742431640625,4.0924072265625,9.06463623046875
97.5998959541321,0.333251953125,-0.494537353515625,-3.62838745117188,-8.66546630859375,2.3931884765625,11.942138671875
97.699896812439,1.40777587890625,-0.129241943359375,-3.37738037109375,-7.63824462890625,6.3299560546875,7.69866943359375
97.8000655174255,-0.41015625,0.08331298828125,-2.947998046875,-6.36199951171875,5.0152587890625,10.3829956054688
97.9004678726196,-0.095062255859375,-0.154876708984375,-2.48977661132812,-3.8397216796875,4.4952392578125,8.04290771484375
98.0001885890961,0.80963134765625,-0.178375244140625,-2.08602905273438,-3.28582763671875,2.42523193359375,8.42010498046875
98.100047826767,0.699615478515625,0.016021728515625,-1.85531616210938,-3.68499755859375,1.96380615234375,10.0946044921875
98.2007098197937,0.780792236328125,-0.162353515625,-1.80191040039062,-1.92718505859375,2.581787109375,8.18115234375
98.3002519607544,-0.896148681640625,0.16448974609375,-1.76239013671875,-1.8768310546875,2.35931396484375,8.46588134765625
98.4001793861389,-0.32257080078125,-0.37811279296875,-2.059326171875,-3.42498779296875,-0.39459228515625,9.5599365234375
98.4999022483826,-0.07904052734375,-0.547943115234375,-2.15866088867188,-1.31927490234375,1.31744384765625,8.44940185546875
98.6000998020172,0.0555419921875,-0.3887939453125,-1.57333374023438,-3.69140625,1.5673828125,9.521484375
98.7005903720856,0.030975341796875,-0.03204345703125,-1.2518310546875,-2.0068359375,0.9356689453125,10.1312255859375
98.8000340461731,-0.11962890625,-0.10467529296875,-1.28814697265625,-0.41290283203125,1.5179443359375,9.91790771484375
98.8998985290527,0.573577880859375,-0.229644775390625,-0.537261962890625,-0.81390380859375,2.244873046875,9.57366943359375
98.999963760376,0.325775146484375,-0.146331787109375,-0.51910400390625,1.90155029296875,0.8807373046875,9.5892333984375
99.0998504161835,-1.13861083984375,0.077972412109375,-0.546875,0.41748046875,2.98828125,10.0772094726562
99.199746131897,-0.2862548828125,-0.24993896484375,-0.092926025390625,-1.9317626953125,2.55706787109375,10.83984375
99.3002333641052,-0.09613037109375,-0.15380859375,0.077972412109375,-0.7763671875,2.9827880859375,8.4173583984375
99.4002141952515,0.008544921875,-0.146331787109375,0.11322021484375,-0.59417724609375,1.42547607421875,8.80645751953125
99.5000236034393,0.162353515625,-0.124969482421875,-0.054473876953125,0.0567626953125,1.03363037109375,9.400634765625
99.5998432636261,0.319366455078125,0.02349853515625,-0.0555419921875,0.68023681640625,1.0345458984375,9.5654296875
99.7002346515656,0.2862548828125,0.12176513671875,0.11749267578125,-0.75439453125,1.5142822265625,10.5496215820312
99.7999732494354,-0.013885498046875,0.107879638671875,0.080108642578125,-1.3385009765625,0.75439453125,10.587158203125
99.9008150100708,0.08544921875,-0.15380859375,0.07049560546875,-1.4154052734375,0.926513671875,10.2731323242188
100.000068187714,-0.11962890625,0.026702880859375,0.009613037109375,0.560302734375,0.7598876953125,9.42535400390625
100.100141525269,-0.163421630859375,0.176239013671875,0.18798828125,-0.3076171875,0.80474853515625,9.18365478515625
100.199784755707,0.01922607421875,0.107879638671875,0.135650634765625,0.19683837890625,0.164794921875,9.49493408203125
